subj,session,trial,rt,object_response,category,condition,imagename
xception,1,1,NaN,"[['truck' 'oven' 'knife' 'keyboard' 'elephant' 'dog' 'clock' 'chair'
  'cat' 'car' 'bottle' 'boat' 'bird' 'bicycle' 'bear' 'airplane']
 ['truck' 'oven' 'knife' 'keyboard' 'elephant' 'dog' 'clock' 'chair'
  'cat' 'car' 'bottle' 'boat' 'bird' 'bicycle' 'bear' 'airplane']
 ['truck' 'oven' 'knife' 'keyboard' 'elephant' 'dog' 'clock' 'chair'
  'cat' 'car' 'bottle' 'boat' 'bird' 'bicycle' 'bear' 'airplane']
 ['truck' 'oven' 'knife' 'keyboard' 'elephant' 'dog' 'clock' 'chair'
  'cat' 'car' 'bottle' 'boat' 'bird' 'bicycle' 'bear' 'airplane']
 ['truck' 'oven' 'knife' 'keyboard' 'elephant' 'dog' 'clock' 'chair'
  'cat' 'car' 'bottle' 'boat' 'bird' 'bicycle' 'bear' 'airplane']
 ['truck' 'oven' 'knife' 'keyboard' 'elephant' 'dog' 'clock' 'chair'
  'cat' 'car' 'bottle' 'boat' 'bird' 'bicycle' 'bear' 'airplane']
 ['truck' 'oven' 'knife' 'keyboard' 'elephant' 'dog' 'clock' 'chair'
  'cat' 'car' 'bottle' 'boat' 'bird' 'bicycle' 'bear' 'airplane']
 ['truck' 'oven' 'knife' 'keyboard' 'elephant' 'dog' 'clock' 'chair'
  'cat' 'car' 'bottle' 'boat' 'bird' 'bicycle' 'bear' 'airplane']
 ['truck' 'oven' 'knife' 'keyboard' 'elephant' 'dog' 'clock' 'chair'
  'cat' 'car' 'bottle' 'boat' 'bird' 'bicycle' 'bear' 'airplane']
 ['truck' 'oven' 'knife' 'keyboard' 'elephant' 'dog' 'clock' 'chair'
  'cat' 'car' 'bottle' 'boat' 'bird' 'bicycle' 'bear' 'airplane']
 ['truck' 'oven' 'knife' 'keyboard' 'elephant' 'dog' 'clock' 'chair'
  'cat' 'car' 'bottle' 'boat' 'bird' 'bicycle' 'bear' 'airplane']
 ['truck' 'oven' 'knife' 'keyboard' 'elephant' 'dog' 'clock' 'chair'
  'cat' 'car' 'bottle' 'boat' 'bird' 'bicycle' 'bear' 'airplane']
 ['truck' 'oven' 'knife' 'keyboard' 'elephant' 'dog' 'clock' 'chair'
  'cat' 'car' 'bottle' 'boat' 'bird' 'bicycle' 'bear' 'airplane']
 ['truck' 'oven' 'knife' 'keyboard' 'elephant' 'dog' 'clock' 'chair'
  'cat' 'car' 'bottle' 'boat' 'bird' 'bicycle' 'bear' 'airplane']
 ['truck' 'oven' 'knife' 'keyboard' 'elephant' 'dog' 'clock' 'chair'
  'cat' 'car' 'bottle' 'boat' 'bird' 'bicycle' 'bear' 'airplane']
 ['truck' 'oven' 'knife' 'keyboard' 'elephant' 'dog' 'clock' 'chair'
  'cat' 'car' 'bottle' 'boat' 'bird' 'bicycle' 'bear' 'airplane']
 ['truck' 'oven' 'knife' 'keyboard' 'elephant' 'dog' 'clock' 'chair'
  'cat' 'car' 'bottle' 'boat' 'bird' 'bicycle' 'bear' 'airplane']
 ['truck' 'oven' 'knife' 'keyboard' 'elephant' 'dog' 'clock' 'chair'
  'cat' 'car' 'bottle' 'boat' 'bird' 'bicycle' 'bear' 'airplane']
 ['truck' 'oven' 'knife' 'keyboard' 'elephant' 'dog' 'clock' 'chair'
  'cat' 'car' 'bottle' 'boat' 'bird' 'bicycle' 'bear' 'airplane']
 ['truck' 'oven' 'knife' 'keyboard' 'elephant' 'dog' 'clock' 'chair'
  'cat' 'car' 'bottle' 'boat' 'bird' 'bicycle' 'bear' 'airplane']
 ['truck' 'oven' 'knife' 'keyboard' 'elephant' 'dog' 'clock' 'chair'
  'cat' 'car' 'bottle' 'boat' 'bird' 'bicycle' 'bear' 'airplane']
 ['truck' 'oven' 'knife' 'keyboard' 'elephant' 'dog' 'clock' 'chair'
  'cat' 'car' 'bottle' 'boat' 'bird' 'bicycle' 'bear' 'airplane']
 ['truck' 'oven' 'knife' 'keyboard' 'elephant' 'dog' 'clock' 'chair'
  'cat' 'car' 'bottle' 'boat' 'bird' 'bicycle' 'bear' 'airplane']
 ['truck' 'oven' 'knife' 'keyboard' 'elephant' 'dog' 'clock' 'chair'
  'cat' 'car' 'bottle' 'boat' 'bird' 'bicycle' 'bear' 'airplane']
 ['truck' 'oven' 'knife' 'keyboard' 'elephant' 'dog' 'clock' 'chair'
  'cat' 'car' 'bottle' 'boat' 'bird' 'bicycle' 'bear' 'airplane']
 ['truck' 'oven' 'knife' 'keyboard' 'elephant' 'dog' 'clock' 'chair'
  'cat' 'car' 'bottle' 'boat' 'bird' 'bicycle' 'bear' 'airplane']
 ['truck' 'oven' 'knife' 'keyboard' 'elephant' 'dog' 'clock' 'chair'
  'cat' 'car' 'bottle' 'boat' 'bird' 'bicycle' 'bear' 'airplane']
 ['truck' 'oven' 'knife' 'keyboard' 'elephant' 'dog' 'clock' 'chair'
  'cat' 'car' 'bottle' 'boat' 'bird' 'bicycle' 'bear' 'airplane']
 ['truck' 'oven' 'knife' 'keyboard' 'elephant' 'dog' 'clock' 'chair'
  'cat' 'car' 'bottle' 'boat' 'bird' 'bicycle' 'bear' 'airplane']
 ['truck' 'oven' 'knife' 'keyboard' 'elephant' 'dog' 'clock' 'chair'
  'cat' 'car' 'bottle' 'boat' 'bird' 'bicycle' 'bear' 'airplane']
 ['truck' 'oven' 'knife' 'keyboard' 'elephant' 'dog' 'clock' 'chair'
  'cat' 'car' 'bottle' 'boat' 'bird' 'bicycle' 'bear' 'airplane']
 ['truck' 'oven' 'knife' 'keyboard' 'elephant' 'dog' 'clock' 'chair'
  'cat' 'car' 'bottle' 'boat' 'bird' 'bicycle' 'bear' 'airplane']]",airplane,NaN,airplane1.png
xception,1,2,NaN,"[['dog' 'truck' 'oven' 'knife' 'keyboard' 'elephant' 'clock' 'chair'
  'cat' 'car' 'boat' 'bicycle' 'bear' 'airplane' 'bottle' 'bird']
 ['truck' 'oven' 'knife' 'keyboard' 'elephant' 'dog' 'clock' 'chair'
  'cat' 'car' 'boat' 'bicycle' 'bear' 'airplane' 'bottle' 'bird']
 ['dog' 'cat' 'bottle' 'truck' 'oven' 'knife' 'keyboard' 'elephant'
  'chair' 'boat' 'bird' 'bicycle' 'bear' 'airplane' 'clock' 'car']
 ['dog' 'clock' 'car' 'truck' 'oven' 'knife' 'keyboard' 'elephant'
  'chair' 'boat' 'bicycle' 'bear' 'airplane' 'cat' 'bottle' 'bird']
 ['truck' 'oven' 'knife' 'keyboard' 'elephant' 'dog' 'clock' 'chair'
  'cat' 'car' 'bottle' 'boat' 'bird' 'bicycle' 'bear' 'airplane']
 ['dog' 'truck' 'oven' 'knife' 'keyboard' 'elephant' 'clock' 'chair'
  'cat' 'car' 'bottle' 'bicycle' 'bear' 'airplane' 'boat' 'bird']
 ['truck' 'oven' 'knife' 'keyboard' 'elephant' 'dog' 'clock' 'chair'
  'cat' 'car' 'bottle' 'boat' 'bird' 'bicycle' 'bear' 'airplane']
 ['truck' 'oven' 'knife' 'keyboard' 'elephant' 'clock' 'chair' 'cat'
  'car' 'bottle' 'boat' 'bird' 'bicycle' 'bear' 'airplane' 'dog']
 ['truck' 'oven' 'knife' 'keyboard' 'elephant' 'dog' 'clock' 'chair'
  'cat' 'car' 'bottle' 'boat' 'bird' 'bicycle' 'bear' 'airplane']
 ['dog' 'truck' 'oven' 'knife' 'keyboard' 'elephant' 'clock' 'chair'
  'cat' 'car' 'boat' 'bird' 'bicycle' 'bear' 'airplane' 'bottle']
 ['truck' 'oven' 'knife' 'keyboard' 'elephant' 'clock' 'chair' 'car'
  'bicycle' 'bear' 'airplane' 'cat' 'boat' 'bird' 'bottle' 'dog']
 ['bottle' 'truck' 'oven' 'knife' 'keyboard' 'elephant' 'dog' 'clock'
  'chair' 'cat' 'car' 'boat' 'bird' 'bicycle' 'bear' 'airplane']
 ['dog' 'cat' 'bottle' 'truck' 'oven' 'knife' 'keyboard' 'elephant'
  'chair' 'boat' 'bird' 'bicycle' 'bear' 'airplane' 'clock' 'car']
 ['truck' 'oven' 'knife' 'keyboard' 'elephant' 'dog' 'clock' 'chair'
  'cat' 'car' 'bottle' 'boat' 'bird' 'bicycle' 'bear' 'airplane']
 ['truck' 'oven' 'knife' 'keyboard' 'elephant' 'clock' 'chair' 'cat'
  'car' 'bottle' 'bicycle' 'bear' 'airplane' 'dog' 'boat' 'bird']
 ['dog' 'cat' 'bottle' 'truck' 'oven' 'knife' 'keyboard' 'elephant'
  'chair' 'boat' 'bird' 'bicycle' 'bear' 'airplane' 'clock' 'car']
 ['bottle' 'bird' 'dog' 'cat' 'boat' 'truck' 'oven' 'knife' 'keyboard'
  'elephant' 'clock' 'chair' 'car' 'bicycle' 'bear' 'airplane']
 ['clock' 'car' 'truck' 'oven' 'knife' 'keyboard' 'elephant' 'chair'
  'boat' 'bicycle' 'bear' 'airplane' 'cat' 'bottle' 'bird' 'dog']
 ['dog' 'clock' 'car' 'truck' 'oven' 'knife' 'keyboard' 'elephant'
  'chair' 'boat' 'bicycle' 'bear' 'airplane' 'cat' 'bottle' 'bird']
 ['dog' 'clock' 'car' 'truck' 'oven' 'knife' 'keyboard' 'elephant'
  'chair' 'boat' 'bicycle' 'bear' 'airplane' 'cat' 'bottle' 'bird']
 ['bottle' 'bird' 'dog' 'cat' 'boat' 'truck' 'oven' 'knife' 'keyboard'
  'elephant' 'clock' 'chair' 'car' 'bicycle' 'bear' 'airplane']
 ['dog' 'truck' 'oven' 'knife' 'keyboard' 'elephant' 'clock' 'chair'
  'cat' 'car' 'boat' 'bicycle' 'bear' 'airplane' 'bottle' 'bird']
 ['truck' 'oven' 'knife' 'keyboard' 'elephant' 'clock' 'chair' 'cat'
  'car' 'bottle' 'bird' 'bicycle' 'bear' 'airplane' 'boat' 'dog']
 ['bottle' 'bird' 'truck' 'oven' 'knife' 'keyboard' 'elephant' 'clock'
  'chair' 'cat' 'car' 'boat' 'bicycle' 'bear' 'airplane' 'dog']
 ['bird' 'dog' 'bottle' 'truck' 'oven' 'knife' 'keyboard' 'elephant'
  'clock' 'chair' 'cat' 'car' 'boat' 'bicycle' 'bear' 'airplane']
 ['bird' 'cat' 'bottle' 'truck' 'oven' 'knife' 'keyboard' 'elephant'
  'chair' 'boat' 'bicycle' 'bear' 'airplane' 'dog' 'clock' 'car']
 ['bird' 'truck' 'oven' 'knife' 'keyboard' 'elephant' 'clock' 'chair'
  'cat' 'car' 'bottle' 'boat' 'bicycle' 'bear' 'airplane' 'dog']
 ['truck' 'oven' 'knife' 'keyboard' 'elephant' 'dog' 'clock' 'chair'
  'cat' 'car' 'boat' 'bicycle' 'bear' 'airplane' 'bottle' 'bird']
 ['dog' 'truck' 'oven' 'knife' 'keyboard' 'elephant' 'clock' 'chair'
  'cat' 'car' 'bottle' 'bicycle' 'bear' 'airplane' 'boat' 'bird']
 ['cat' 'bottle' 'bird' 'truck' 'oven' 'knife' 'keyboard' 'elephant'
  'chair' 'boat' 'bicycle' 'bear' 'airplane' 'clock' 'car' 'dog']
 ['clock' 'car' 'truck' 'oven' 'knife' 'keyboard' 'elephant' 'chair'
  'boat' 'bicycle' 'bear' 'airplane' 'dog' 'cat' 'bottle' 'bird']
 ['truck' 'oven' 'knife' 'keyboard' 'elephant' 'clock' 'chair' 'cat'
  'car' 'bottle' 'bicycle' 'bear' 'airplane' 'dog' 'boat' 'bird']]",airplane,NaN,airplane10.png
xception,1,3,NaN,"[['bird' 'truck' 'oven' 'knife' 'keyboard' 'elephant' 'dog' 'clock'
  'chair' 'cat' 'car' 'bottle' 'bicycle' 'bear' 'airplane' 'boat']
 ['bird' 'dog' 'boat' 'truck' 'oven' 'knife' 'keyboard' 'elephant'
  'clock' 'chair' 'cat' 'car' 'bottle' 'bicycle' 'bear' 'airplane']
 ['bird' 'dog' 'truck' 'oven' 'knife' 'keyboard' 'elephant' 'clock'
  'chair' 'cat' 'car' 'bottle' 'bicycle' 'bear' 'airplane' 'boat']
 ['bird' 'truck' 'oven' 'knife' 'keyboard' 'elephant' 'dog' 'clock'
  'chair' 'cat' 'car' 'boat' 'bicycle' 'bear' 'airplane' 'bottle']
 ['bird' 'dog' 'cat' 'bottle' 'truck' 'oven' 'knife' 'keyboard'
  'elephant' 'chair' 'boat' 'bicycle' 'bear' 'airplane' 'clock' 'car']
 ['bird' 'cat' 'bottle' 'truck' 'oven' 'knife' 'keyboard' 'elephant'
  'chair' 'boat' 'bicycle' 'bear' 'airplane' 'dog' 'clock' 'car']
 ['bird' 'bottle' 'truck' 'oven' 'knife' 'keyboard' 'elephant' 'clock'
  'chair' 'cat' 'car' 'boat' 'bicycle' 'bear' 'airplane' 'dog']
 ['bird' 'truck' 'oven' 'knife' 'keyboard' 'elephant' 'dog' 'clock'
  'chair' 'cat' 'car' 'boat' 'bicycle' 'bear' 'airplane' 'bottle']
 ['bird' 'truck' 'oven' 'knife' 'keyboard' 'elephant' 'clock' 'chair'
  'cat' 'car' 'bottle' 'bicycle' 'bear' 'airplane' 'dog' 'boat']
 ['bird' 'truck' 'oven' 'knife' 'keyboard' 'elephant' 'clock' 'chair'
  'cat' 'car' 'bottle' 'bicycle' 'bear' 'airplane' 'boat' 'dog']
 ['bird' 'clock' 'car' 'truck' 'oven' 'knife' 'keyboard' 'elephant'
  'chair' 'boat' 'bicycle' 'bear' 'airplane' 'cat' 'bottle' 'dog']
 ['bird' 'bottle' 'dog' 'cat' 'boat' 'truck' 'oven' 'knife' 'keyboard'
  'elephant' 'clock' 'chair' 'car' 'bicycle' 'bear' 'airplane']
 ['bird' 'clock' 'car' 'truck' 'oven' 'knife' 'keyboard' 'elephant'
  'chair' 'boat' 'bicycle' 'bear' 'airplane' 'cat' 'bottle' 'dog']
 ['bird' 'dog' 'boat' 'truck' 'oven' 'knife' 'keyboard' 'elephant'
  'clock' 'chair' 'cat' 'car' 'bottle' 'bicycle' 'bear' 'airplane']
 ['bird' 'clock' 'car' 'truck' 'oven' 'knife' 'keyboard' 'elephant'
  'chair' 'boat' 'bicycle' 'bear' 'airplane' 'dog' 'cat' 'bottle']
 ['bird' 'dog' 'truck' 'oven' 'knife' 'keyboard' 'elephant' 'clock'
  'chair' 'cat' 'car' 'bottle' 'boat' 'bicycle' 'bear' 'airplane']
 ['bird' 'clock' 'car' 'truck' 'oven' 'knife' 'keyboard' 'elephant'
  'chair' 'boat' 'bicycle' 'bear' 'airplane' 'dog' 'cat' 'bottle']
 ['bird' 'truck' 'oven' 'knife' 'keyboard' 'elephant' 'dog' 'clock'
  'chair' 'cat' 'car' 'bottle' 'boat' 'bicycle' 'bear' 'airplane']
 ['bird' 'dog' 'truck' 'oven' 'knife' 'keyboard' 'elephant' 'clock'
  'chair' 'cat' 'car' 'bottle' 'boat' 'bicycle' 'bear' 'airplane']
 ['bird' 'truck' 'oven' 'knife' 'keyboard' 'elephant' 'clock' 'chair'
  'car' 'bicycle' 'bear' 'airplane' 'dog' 'cat' 'boat' 'bottle']
 ['bird' 'dog' 'cat' 'bottle' 'truck' 'oven' 'knife' 'keyboard'
  'elephant' 'chair' 'boat' 'bicycle' 'bear' 'airplane' 'clock' 'car']
 ['bird' 'dog' 'clock' 'car' 'truck' 'oven' 'knife' 'keyboard' 'elephant'
  'chair' 'boat' 'bicycle' 'bear' 'airplane' 'cat' 'bottle']
 ['bird' 'truck' 'oven' 'knife' 'keyboard' 'elephant' 'dog' 'clock'
  'chair' 'cat' 'car' 'boat' 'bicycle' 'bear' 'airplane' 'bottle']
 ['bird' 'cat' 'bottle' 'truck' 'oven' 'knife' 'keyboard' 'elephant'
  'dog' 'chair' 'boat' 'bicycle' 'bear' 'airplane' 'clock' 'car']
 ['bird' 'dog' 'boat' 'truck' 'oven' 'knife' 'keyboard' 'elephant'
  'clock' 'chair' 'cat' 'car' 'bottle' 'bicycle' 'bear' 'airplane']
 ['bird' 'dog' 'truck' 'oven' 'knife' 'keyboard' 'elephant' 'clock'
  'chair' 'cat' 'car' 'bottle' 'bicycle' 'bear' 'airplane' 'boat']
 ['bird' 'truck' 'oven' 'knife' 'keyboard' 'elephant' 'dog' 'clock'
  'chair' 'cat' 'car' 'bottle' 'boat' 'bicycle' 'bear' 'airplane']
 ['bird' 'dog' 'truck' 'oven' 'knife' 'keyboard' 'elephant' 'clock'
  'chair' 'cat' 'car' 'bottle' 'boat' 'bicycle' 'bear' 'airplane']
 ['bird' 'truck' 'oven' 'knife' 'keyboard' 'elephant' 'dog' 'clock'
  'chair' 'cat' 'car' 'boat' 'bicycle' 'bear' 'airplane' 'bottle']
 ['bird' 'dog' 'truck' 'oven' 'knife' 'keyboard' 'elephant' 'clock'
  'chair' 'cat' 'car' 'boat' 'bicycle' 'bear' 'airplane' 'bottle']
 ['bird' 'cat' 'bottle' 'truck' 'oven' 'knife' 'keyboard' 'elephant'
  'dog' 'chair' 'boat' 'bicycle' 'bear' 'airplane' 'clock' 'car']
 ['bird' 'truck' 'oven' 'knife' 'keyboard' 'elephant' 'clock' 'chair'
  'car' 'bicycle' 'bear' 'airplane' 'cat' 'boat' 'dog' 'bottle']]",airplane,NaN,airplane2.png
xception,1,4,NaN,"[['bird' 'truck' 'oven' 'knife' 'keyboard' 'elephant' 'dog' 'clock'
  'chair' 'cat' 'car' 'boat' 'bicycle' 'bear' 'airplane' 'bottle']
 ['bird' 'clock' 'car' 'truck' 'oven' 'knife' 'keyboard' 'elephant'
  'chair' 'boat' 'bicycle' 'bear' 'airplane' 'dog' 'cat' 'bottle']
 ['bird' 'truck' 'oven' 'knife' 'keyboard' 'elephant' 'dog' 'clock'
  'chair' 'cat' 'car' 'bottle' 'boat' 'bicycle' 'bear' 'airplane']
 ['bird' 'dog' 'cat' 'bottle' 'truck' 'oven' 'knife' 'keyboard'
  'elephant' 'chair' 'boat' 'bicycle' 'bear' 'airplane' 'clock' 'car']
 ['bird' 'truck' 'oven' 'knife' 'keyboard' 'elephant' 'clock' 'chair'
  'cat' 'car' 'boat' 'bicycle' 'bear' 'airplane' 'dog' 'bottle']
 ['bird' 'clock' 'car' 'truck' 'oven' 'knife' 'keyboard' 'elephant' 'dog'
  'chair' 'boat' 'bicycle' 'bear' 'airplane' 'cat' 'bottle']
 ['bird' 'clock' 'car' 'truck' 'oven' 'knife' 'keyboard' 'elephant' 'dog'
  'chair' 'boat' 'bicycle' 'bear' 'airplane' 'cat' 'bottle']
 ['bird' 'truck' 'oven' 'knife' 'keyboard' 'elephant' 'clock' 'chair'
  'car' 'bicycle' 'bear' 'airplane' 'cat' 'boat' 'bottle' 'dog']
 ['bird' 'truck' 'oven' 'knife' 'keyboard' 'elephant' 'clock' 'chair'
  'cat' 'car' 'bottle' 'bicycle' 'bear' 'airplane' 'boat' 'dog']
 ['bird' 'cat' 'bottle' 'truck' 'oven' 'knife' 'keyboard' 'elephant'
  'chair' 'boat' 'bicycle' 'bear' 'airplane' 'dog' 'clock' 'car']
 ['bird' 'bottle' 'truck' 'oven' 'knife' 'keyboard' 'elephant' 'dog'
  'clock' 'chair' 'cat' 'car' 'boat' 'bicycle' 'bear' 'airplane']
 ['bird' 'truck' 'oven' 'knife' 'keyboard' 'elephant' 'clock' 'chair'
  'cat' 'car' 'bottle' 'bicycle' 'bear' 'airplane' 'boat' 'dog']
 ['bird' 'truck' 'oven' 'knife' 'keyboard' 'elephant' 'clock' 'chair'
  'car' 'bicycle' 'bear' 'airplane' 'cat' 'boat' 'bottle' 'dog']
 ['bird' 'dog' 'truck' 'oven' 'knife' 'keyboard' 'elephant' 'clock'
  'chair' 'cat' 'car' 'bottle' 'bicycle' 'bear' 'airplane' 'boat']
 ['bird' 'bottle' 'cat' 'boat' 'truck' 'oven' 'knife' 'keyboard'
  'elephant' 'dog' 'clock' 'chair' 'car' 'bicycle' 'bear' 'airplane']
 ['bird' 'bottle' 'truck' 'oven' 'knife' 'keyboard' 'elephant' 'clock'
  'chair' 'cat' 'car' 'boat' 'bicycle' 'bear' 'airplane' 'dog']
 ['bird' 'dog' 'truck' 'oven' 'knife' 'keyboard' 'elephant' 'clock'
  'chair' 'cat' 'car' 'boat' 'bicycle' 'bear' 'airplane' 'bottle']
 ['bird' 'cat' 'bottle' 'truck' 'oven' 'knife' 'keyboard' 'elephant'
  'chair' 'boat' 'bicycle' 'bear' 'airplane' 'clock' 'car' 'dog']
 ['bird' 'dog' 'boat' 'truck' 'oven' 'knife' 'keyboard' 'elephant'
  'clock' 'chair' 'cat' 'car' 'bottle' 'bicycle' 'bear' 'airplane']
 ['bird' 'truck' 'oven' 'knife' 'keyboard' 'elephant' 'clock' 'chair'
  'cat' 'car' 'boat' 'bicycle' 'bear' 'airplane' 'bottle' 'dog']
 ['bird' 'truck' 'oven' 'knife' 'keyboard' 'elephant' 'clock' 'chair'
  'cat' 'car' 'boat' 'bicycle' 'bear' 'airplane' 'dog' 'bottle']
 ['bird' 'dog' 'boat' 'truck' 'oven' 'knife' 'keyboard' 'elephant'
  'clock' 'chair' 'cat' 'car' 'bottle' 'bicycle' 'bear' 'airplane']
 ['bird' 'dog' 'boat' 'truck' 'oven' 'knife' 'keyboard' 'elephant'
  'clock' 'chair' 'cat' 'car' 'bottle' 'bicycle' 'bear' 'airplane']
 ['bird' 'dog' 'bottle' 'truck' 'oven' 'knife' 'keyboard' 'elephant'
  'clock' 'chair' 'cat' 'car' 'boat' 'bicycle' 'bear' 'airplane']
 ['bird' 'dog' 'bottle' 'truck' 'oven' 'knife' 'keyboard' 'elephant'
  'clock' 'chair' 'cat' 'car' 'boat' 'bicycle' 'bear' 'airplane']
 ['bird' 'dog' 'cat' 'bottle' 'truck' 'oven' 'knife' 'keyboard'
  'elephant' 'chair' 'boat' 'bicycle' 'bear' 'airplane' 'clock' 'car']
 ['bird' 'truck' 'oven' 'knife' 'keyboard' 'elephant' 'dog' 'clock'
  'chair' 'cat' 'car' 'bottle' 'boat' 'bicycle' 'bear' 'airplane']
 ['bird' 'truck' 'oven' 'knife' 'keyboard' 'elephant' 'clock' 'chair'
  'cat' 'car' 'bottle' 'bicycle' 'bear' 'airplane' 'boat' 'dog']
 ['bird' 'truck' 'oven' 'knife' 'keyboard' 'elephant' 'clock' 'chair'
  'cat' 'car' 'bottle' 'boat' 'bicycle' 'bear' 'airplane' 'dog']
 ['bird' 'bottle' 'truck' 'oven' 'knife' 'keyboard' 'elephant' 'clock'
  'chair' 'cat' 'car' 'boat' 'bicycle' 'bear' 'airplane' 'dog']
 ['bird' 'boat' 'truck' 'oven' 'knife' 'keyboard' 'elephant' 'clock'
  'chair' 'cat' 'car' 'bottle' 'bicycle' 'bear' 'airplane' 'dog']
 ['bird' 'dog' 'truck' 'oven' 'knife' 'keyboard' 'elephant' 'clock'
  'chair' 'cat' 'car' 'boat' 'bicycle' 'bear' 'airplane' 'bottle']]",airplane,NaN,airplane3.png
xception,1,5,NaN,"[['bird' 'truck' 'oven' 'knife' 'keyboard' 'elephant' 'clock' 'chair'
  'cat' 'car' 'boat' 'bicycle' 'bear' 'airplane' 'dog' 'bottle']
 ['bird' 'truck' 'oven' 'knife' 'keyboard' 'elephant' 'clock' 'chair'
  'cat' 'car' 'bottle' 'bicycle' 'bear' 'airplane' 'boat' 'dog']
 ['bird' 'dog' 'boat' 'truck' 'oven' 'knife' 'keyboard' 'elephant'
  'clock' 'chair' 'cat' 'car' 'bottle' 'bicycle' 'bear' 'airplane']
 ['bird' 'dog' 'truck' 'oven' 'knife' 'keyboard' 'elephant' 'clock'
  'chair' 'cat' 'car' 'boat' 'bicycle' 'bear' 'airplane' 'bottle']
 ['bird' 'truck' 'oven' 'knife' 'keyboard' 'elephant' 'clock' 'chair'
  'cat' 'car' 'bottle' 'boat' 'bicycle' 'bear' 'airplane' 'dog']
 ['bird' 'dog' 'boat' 'truck' 'oven' 'knife' 'keyboard' 'elephant'
  'clock' 'chair' 'cat' 'car' 'bottle' 'bicycle' 'bear' 'airplane']
 ['bird' 'truck' 'oven' 'knife' 'keyboard' 'elephant' 'dog' 'clock'
  'chair' 'cat' 'car' 'bottle' 'boat' 'bicycle' 'bear' 'airplane']
 ['bird' 'dog' 'bottle' 'truck' 'oven' 'knife' 'keyboard' 'elephant'
  'clock' 'chair' 'cat' 'car' 'boat' 'bicycle' 'bear' 'airplane']
 ['bird' 'bottle' 'truck' 'oven' 'knife' 'keyboard' 'elephant' 'dog'
  'clock' 'chair' 'cat' 'car' 'boat' 'bicycle' 'bear' 'airplane']
 ['bird' 'bottle' 'truck' 'oven' 'knife' 'keyboard' 'elephant' 'dog'
  'clock' 'chair' 'cat' 'car' 'boat' 'bicycle' 'bear' 'airplane']
 ['bird' 'truck' 'oven' 'knife' 'keyboard' 'elephant' 'clock' 'chair'
  'cat' 'car' 'bottle' 'bicycle' 'bear' 'airplane' 'boat' 'dog']
 ['bird' 'dog' 'truck' 'oven' 'knife' 'keyboard' 'elephant' 'clock'
  'chair' 'cat' 'car' 'bottle' 'boat' 'bicycle' 'bear' 'airplane']
 ['bird' 'dog' 'clock' 'car' 'truck' 'oven' 'knife' 'keyboard' 'elephant'
  'chair' 'boat' 'bicycle' 'bear' 'airplane' 'cat' 'bottle']
 ['bird' 'truck' 'oven' 'knife' 'keyboard' 'elephant' 'clock' 'chair'
  'cat' 'car' 'bottle' 'bicycle' 'bear' 'airplane' 'boat' 'dog']
 ['bird' 'truck' 'oven' 'knife' 'keyboard' 'elephant' 'dog' 'clock'
  'chair' 'car' 'bicycle' 'bear' 'airplane' 'cat' 'boat' 'bottle']
 ['bird' 'bottle' 'truck' 'oven' 'knife' 'keyboard' 'elephant' 'dog'
  'clock' 'chair' 'cat' 'car' 'boat' 'bicycle' 'bear' 'airplane']
 ['bird' 'dog' 'bottle' 'cat' 'boat' 'truck' 'oven' 'knife' 'keyboard'
  'elephant' 'clock' 'chair' 'car' 'bicycle' 'bear' 'airplane']
 ['bird' 'truck' 'oven' 'knife' 'keyboard' 'elephant' 'clock' 'chair'
  'cat' 'car' 'bottle' 'bicycle' 'bear' 'airplane' 'dog' 'boat']
 ['bird' 'dog' 'truck' 'oven' 'knife' 'keyboard' 'elephant' 'clock'
  'chair' 'cat' 'car' 'boat' 'bicycle' 'bear' 'airplane' 'bottle']
 ['bird' 'dog' 'truck' 'oven' 'knife' 'keyboard' 'elephant' 'clock'
  'chair' 'cat' 'car' 'bottle' 'boat' 'bicycle' 'bear' 'airplane']
 ['bird' 'boat' 'truck' 'oven' 'knife' 'keyboard' 'elephant' 'clock'
  'chair' 'cat' 'car' 'bottle' 'bicycle' 'bear' 'airplane' 'dog']
 ['bird' 'dog' 'truck' 'oven' 'knife' 'keyboard' 'elephant' 'clock'
  'chair' 'car' 'bicycle' 'bear' 'airplane' 'cat' 'boat' 'bottle']
 ['bird' 'truck' 'oven' 'knife' 'keyboard' 'elephant' 'dog' 'clock'
  'chair' 'cat' 'car' 'bottle' 'boat' 'bicycle' 'bear' 'airplane']
 ['bird' 'dog' 'truck' 'oven' 'knife' 'keyboard' 'elephant' 'clock'
  'chair' 'cat' 'car' 'bottle' 'boat' 'bicycle' 'bear' 'airplane']
 ['bird' 'dog' 'truck' 'oven' 'knife' 'keyboard' 'elephant' 'clock'
  'chair' 'cat' 'car' 'bottle' 'bicycle' 'bear' 'airplane' 'boat']
 ['bird' 'truck' 'oven' 'knife' 'keyboard' 'elephant' 'clock' 'chair'
  'cat' 'car' 'bottle' 'bicycle' 'bear' 'airplane' 'boat' 'dog']
 ['bird' 'clock' 'car' 'truck' 'oven' 'knife' 'keyboard' 'elephant'
  'chair' 'boat' 'bicycle' 'bear' 'airplane' 'cat' 'bottle' 'dog']
 ['bird' 'cat' 'bottle' 'truck' 'oven' 'knife' 'keyboard' 'elephant'
  'dog' 'chair' 'boat' 'bicycle' 'bear' 'airplane' 'clock' 'car']
 ['bird' 'dog' 'boat' 'truck' 'oven' 'knife' 'keyboard' 'elephant'
  'clock' 'chair' 'cat' 'car' 'bottle' 'bicycle' 'bear' 'airplane']
 ['bird' 'dog' 'bottle' 'truck' 'oven' 'knife' 'keyboard' 'elephant'
  'clock' 'chair' 'cat' 'car' 'boat' 'bicycle' 'bear' 'airplane']
 ['bird' 'truck' 'oven' 'knife' 'keyboard' 'elephant' 'clock' 'chair'
  'cat' 'car' 'bottle' 'bicycle' 'bear' 'airplane' 'boat' 'dog']
 ['bird' 'cat' 'bottle' 'truck' 'oven' 'knife' 'keyboard' 'elephant'
  'chair' 'boat' 'bicycle' 'bear' 'airplane' 'dog' 'clock' 'car']]",airplane,NaN,airplane4.png
xception,1,6,NaN,"[['bird' 'dog' 'bottle' 'cat' 'boat' 'truck' 'oven' 'knife' 'keyboard'
  'elephant' 'clock' 'chair' 'car' 'bicycle' 'bear' 'airplane']
 ['bird' 'cat' 'bottle' 'truck' 'oven' 'knife' 'keyboard' 'elephant'
  'chair' 'boat' 'bicycle' 'bear' 'airplane' 'clock' 'car' 'dog']
 ['bird' 'cat' 'bottle' 'truck' 'oven' 'knife' 'keyboard' 'elephant'
  'dog' 'chair' 'boat' 'bicycle' 'bear' 'airplane' 'clock' 'car']
 ['bird' 'cat' 'bottle' 'truck' 'oven' 'knife' 'keyboard' 'elephant'
  'chair' 'boat' 'bicycle' 'bear' 'airplane' 'clock' 'car' 'dog']
 ['bird' 'dog' 'clock' 'car' 'truck' 'oven' 'knife' 'keyboard' 'elephant'
  'chair' 'boat' 'bicycle' 'bear' 'airplane' 'cat' 'bottle']
 ['bird' 'truck' 'oven' 'knife' 'keyboard' 'elephant' 'clock' 'chair'
  'car' 'bicycle' 'bear' 'airplane' 'dog' 'cat' 'boat' 'bottle']
 ['bird' 'dog' 'clock' 'car' 'truck' 'oven' 'knife' 'keyboard' 'elephant'
  'chair' 'boat' 'bicycle' 'bear' 'airplane' 'cat' 'bottle']
 ['bird' 'bottle' 'dog' 'cat' 'boat' 'truck' 'oven' 'knife' 'keyboard'
  'elephant' 'clock' 'chair' 'car' 'bicycle' 'bear' 'airplane']
 ['bird' 'dog' 'truck' 'oven' 'knife' 'keyboard' 'elephant' 'clock'
  'chair' 'cat' 'car' 'boat' 'bicycle' 'bear' 'airplane' 'bottle']
 ['bird' 'cat' 'bottle' 'truck' 'oven' 'knife' 'keyboard' 'elephant'
  'dog' 'chair' 'boat' 'bicycle' 'bear' 'airplane' 'clock' 'car']
 ['bird' 'clock' 'car' 'truck' 'oven' 'knife' 'keyboard' 'elephant' 'dog'
  'chair' 'boat' 'bicycle' 'bear' 'airplane' 'cat' 'bottle']
 ['bird' 'dog' 'boat' 'truck' 'oven' 'knife' 'keyboard' 'elephant'
  'clock' 'chair' 'cat' 'car' 'bottle' 'bicycle' 'bear' 'airplane']
 ['bird' 'dog' 'clock' 'car' 'truck' 'oven' 'knife' 'keyboard' 'elephant'
  'chair' 'boat' 'bicycle' 'bear' 'airplane' 'cat' 'bottle']
 ['bird' 'cat' 'bottle' 'truck' 'oven' 'knife' 'keyboard' 'elephant'
  'chair' 'boat' 'bicycle' 'bear' 'airplane' 'clock' 'car' 'dog']
 ['bird' 'dog' 'bottle' 'truck' 'oven' 'knife' 'keyboard' 'elephant'
  'clock' 'chair' 'cat' 'car' 'boat' 'bicycle' 'bear' 'airplane']
 ['bird' 'dog' 'truck' 'oven' 'knife' 'keyboard' 'elephant' 'clock'
  'chair' 'cat' 'car' 'bottle' 'boat' 'bicycle' 'bear' 'airplane']
 ['bird' 'bottle' 'dog' 'cat' 'boat' 'truck' 'oven' 'knife' 'keyboard'
  'elephant' 'clock' 'chair' 'car' 'bicycle' 'bear' 'airplane']
 ['bird' 'truck' 'oven' 'knife' 'keyboard' 'elephant' 'clock' 'chair'
  'cat' 'car' 'bottle' 'boat' 'bicycle' 'bear' 'airplane' 'dog']
 ['bird' 'clock' 'car' 'truck' 'oven' 'knife' 'keyboard' 'elephant'
  'chair' 'boat' 'bicycle' 'bear' 'airplane' 'cat' 'bottle' 'dog']
 ['bird' 'dog' 'truck' 'oven' 'knife' 'keyboard' 'elephant' 'clock'
  'chair' 'cat' 'car' 'boat' 'bicycle' 'bear' 'airplane' 'bottle']
 ['bird' 'truck' 'oven' 'knife' 'keyboard' 'elephant' 'clock' 'chair'
  'cat' 'car' 'boat' 'bicycle' 'bear' 'airplane' 'bottle' 'dog']
 ['bird' 'truck' 'oven' 'knife' 'keyboard' 'elephant' 'clock' 'chair'
  'car' 'bicycle' 'bear' 'airplane' 'cat' 'boat' 'bottle' 'dog']
 ['bird' 'clock' 'car' 'truck' 'oven' 'knife' 'keyboard' 'elephant'
  'chair' 'boat' 'bicycle' 'bear' 'airplane' 'dog' 'cat' 'bottle']
 ['bird' 'truck' 'oven' 'knife' 'keyboard' 'elephant' 'clock' 'chair'
  'cat' 'car' 'boat' 'bicycle' 'bear' 'airplane' 'bottle' 'dog']
 ['bird' 'dog' 'clock' 'car' 'truck' 'oven' 'knife' 'keyboard' 'elephant'
  'chair' 'boat' 'bicycle' 'bear' 'airplane' 'cat' 'bottle']
 ['bird' 'truck' 'oven' 'knife' 'keyboard' 'elephant' 'clock' 'chair'
  'cat' 'car' 'bottle' 'boat' 'bicycle' 'bear' 'airplane' 'dog']
 ['bird' 'bottle' 'truck' 'oven' 'knife' 'keyboard' 'elephant' 'dog'
  'clock' 'chair' 'cat' 'car' 'boat' 'bicycle' 'bear' 'airplane']
 ['bird' 'dog' 'boat' 'truck' 'oven' 'knife' 'keyboard' 'elephant'
  'clock' 'chair' 'cat' 'car' 'bottle' 'bicycle' 'bear' 'airplane']
 ['bird' 'cat' 'bottle' 'truck' 'oven' 'knife' 'keyboard' 'elephant'
  'chair' 'boat' 'bicycle' 'bear' 'airplane' 'dog' 'clock' 'car']
 ['bird' 'dog' 'truck' 'oven' 'knife' 'keyboard' 'elephant' 'clock'
  'chair' 'cat' 'car' 'boat' 'bicycle' 'bear' 'airplane' 'bottle']
 ['bird' 'dog' 'bottle' 'cat' 'boat' 'truck' 'oven' 'knife' 'keyboard'
  'elephant' 'clock' 'chair' 'car' 'bicycle' 'bear' 'airplane']
 ['bird' 'dog' 'truck' 'oven' 'knife' 'keyboard' 'elephant' 'clock'
  'chair' 'cat' 'car' 'bottle' 'boat' 'bicycle' 'bear' 'airplane']]",airplane,NaN,airplane5.png
xception,1,7,NaN,"[['bird' 'dog' 'truck' 'oven' 'knife' 'keyboard' 'elephant' 'clock'
  'chair' 'cat' 'car' 'bottle' 'bicycle' 'bear' 'airplane' 'boat']
 ['cat' 'bottle' 'bird' 'truck' 'oven' 'knife' 'keyboard' 'elephant'
  'dog' 'chair' 'boat' 'bicycle' 'bear' 'airplane' 'clock' 'car']
 ['bird' 'dog' 'clock' 'car' 'truck' 'oven' 'knife' 'keyboard' 'elephant'
  'chair' 'boat' 'bicycle' 'bear' 'airplane' 'cat' 'bottle']
 ['bird' 'bottle' 'truck' 'oven' 'knife' 'keyboard' 'elephant' 'clock'
  'chair' 'cat' 'car' 'boat' 'bicycle' 'bear' 'airplane' 'dog']
 ['bird' 'truck' 'oven' 'knife' 'keyboard' 'elephant' 'dog' 'clock'
  'chair' 'cat' 'car' 'bottle' 'bicycle' 'bear' 'airplane' 'boat']
 ['bird' 'dog' 'boat' 'truck' 'oven' 'knife' 'keyboard' 'elephant'
  'clock' 'chair' 'cat' 'car' 'bottle' 'bicycle' 'bear' 'airplane']
 ['bird' 'truck' 'oven' 'knife' 'keyboard' 'elephant' 'clock' 'chair'
  'cat' 'car' 'bottle' 'bicycle' 'bear' 'airplane' 'boat' 'dog']
 ['bird' 'dog' 'truck' 'oven' 'knife' 'keyboard' 'elephant' 'clock'
  'chair' 'cat' 'car' 'boat' 'bicycle' 'bear' 'airplane' 'bottle']
 ['bird' 'dog' 'clock' 'car' 'truck' 'oven' 'knife' 'keyboard' 'elephant'
  'chair' 'boat' 'bicycle' 'bear' 'airplane' 'cat' 'bottle']
 ['bird' 'clock' 'car' 'truck' 'oven' 'knife' 'keyboard' 'elephant'
  'chair' 'boat' 'bicycle' 'bear' 'airplane' 'cat' 'bottle' 'dog']
 ['bird' 'boat' 'truck' 'oven' 'knife' 'keyboard' 'elephant' 'clock'
  'chair' 'cat' 'car' 'bottle' 'bicycle' 'bear' 'airplane' 'dog']
 ['dog' 'bottle' 'truck' 'oven' 'knife' 'keyboard' 'elephant' 'clock'
  'chair' 'cat' 'car' 'boat' 'bird' 'bicycle' 'bear' 'airplane']
 ['bird' 'truck' 'oven' 'knife' 'keyboard' 'elephant' 'clock' 'chair'
  'cat' 'car' 'bottle' 'boat' 'bicycle' 'bear' 'airplane' 'dog']
 ['bird' 'dog' 'clock' 'car' 'truck' 'oven' 'knife' 'keyboard' 'elephant'
  'chair' 'boat' 'bicycle' 'bear' 'airplane' 'cat' 'bottle']
 ['bird' 'truck' 'oven' 'knife' 'keyboard' 'elephant' 'dog' 'clock'
  'chair' 'cat' 'car' 'boat' 'bicycle' 'bear' 'airplane' 'bottle']
 ['dog' 'truck' 'oven' 'knife' 'keyboard' 'elephant' 'clock' 'chair'
  'cat' 'car' 'bottle' 'bird' 'bicycle' 'bear' 'airplane' 'boat']
 ['bird' 'dog' 'clock' 'car' 'truck' 'oven' 'knife' 'keyboard' 'elephant'
  'chair' 'boat' 'bicycle' 'bear' 'airplane' 'cat' 'bottle']
 ['dog' 'bottle' 'cat' 'boat' 'bird' 'truck' 'oven' 'knife' 'keyboard'
  'elephant' 'clock' 'chair' 'car' 'bicycle' 'bear' 'airplane']
 ['bird' 'truck' 'oven' 'knife' 'keyboard' 'elephant' 'clock' 'chair'
  'cat' 'car' 'bottle' 'bicycle' 'bear' 'airplane' 'dog' 'boat']
 ['bird' 'dog' 'bottle' 'truck' 'oven' 'knife' 'keyboard' 'elephant'
  'clock' 'chair' 'cat' 'car' 'boat' 'bicycle' 'bear' 'airplane']
 ['bird' 'dog' 'truck' 'oven' 'knife' 'keyboard' 'elephant' 'clock'
  'chair' 'car' 'bicycle' 'bear' 'airplane' 'cat' 'boat' 'bottle']
 ['bird' 'dog' 'cat' 'bottle' 'truck' 'oven' 'knife' 'keyboard'
  'elephant' 'chair' 'boat' 'bicycle' 'bear' 'airplane' 'clock' 'car']
 ['bird' 'cat' 'bottle' 'truck' 'oven' 'knife' 'keyboard' 'elephant'
  'chair' 'boat' 'bicycle' 'bear' 'airplane' 'dog' 'clock' 'car']
 ['bird' 'dog' 'truck' 'oven' 'knife' 'keyboard' 'elephant' 'clock'
  'chair' 'cat' 'car' 'boat' 'bicycle' 'bear' 'airplane' 'bottle']
 ['bird' 'dog' 'boat' 'truck' 'oven' 'knife' 'keyboard' 'elephant'
  'clock' 'chair' 'cat' 'car' 'bottle' 'bicycle' 'bear' 'airplane']
 ['bird' 'boat' 'truck' 'oven' 'knife' 'keyboard' 'elephant' 'clock'
  'chair' 'cat' 'car' 'bottle' 'bicycle' 'bear' 'airplane' 'dog']
 ['bottle' 'bird' 'truck' 'oven' 'knife' 'keyboard' 'elephant' 'clock'
  'chair' 'cat' 'car' 'boat' 'bicycle' 'bear' 'airplane' 'dog']
 ['bird' 'truck' 'oven' 'knife' 'keyboard' 'elephant' 'clock' 'chair'
  'cat' 'car' 'bottle' 'boat' 'bicycle' 'bear' 'airplane' 'dog']
 ['bird' 'bottle' 'truck' 'oven' 'knife' 'keyboard' 'elephant' 'clock'
  'chair' 'cat' 'car' 'boat' 'bicycle' 'bear' 'airplane' 'dog']
 ['bird' 'dog' 'boat' 'truck' 'oven' 'knife' 'keyboard' 'elephant'
  'clock' 'chair' 'cat' 'car' 'bottle' 'bicycle' 'bear' 'airplane']
 ['bird' 'truck' 'oven' 'knife' 'keyboard' 'elephant' 'clock' 'chair'
  'cat' 'car' 'bottle' 'bicycle' 'bear' 'airplane' 'boat' 'dog']
 ['bird' 'truck' 'oven' 'knife' 'keyboard' 'elephant' 'clock' 'chair'
  'cat' 'car' 'bottle' 'bicycle' 'bear' 'airplane' 'boat' 'dog']]",airplane,NaN,airplane6.png
xception,1,8,NaN,"[['truck' 'oven' 'knife' 'keyboard' 'elephant' 'dog' 'clock' 'chair'
  'cat' 'car' 'bottle' 'boat' 'bird' 'bicycle' 'bear' 'airplane']
 ['truck' 'oven' 'knife' 'keyboard' 'elephant' 'dog' 'clock' 'chair'
  'cat' 'car' 'bottle' 'boat' 'bird' 'bicycle' 'bear' 'airplane']
 ['truck' 'oven' 'knife' 'keyboard' 'elephant' 'dog' 'clock' 'chair'
  'cat' 'car' 'bottle' 'boat' 'bird' 'bicycle' 'bear' 'airplane']
 ['truck' 'oven' 'knife' 'keyboard' 'elephant' 'dog' 'clock' 'chair'
  'cat' 'car' 'bottle' 'boat' 'bird' 'bicycle' 'bear' 'airplane']
 ['truck' 'oven' 'knife' 'keyboard' 'elephant' 'dog' 'clock' 'chair'
  'cat' 'car' 'bottle' 'boat' 'bird' 'bicycle' 'bear' 'airplane']
 ['truck' 'oven' 'knife' 'keyboard' 'elephant' 'dog' 'clock' 'chair'
  'cat' 'car' 'bottle' 'boat' 'bird' 'bicycle' 'bear' 'airplane']
 ['truck' 'oven' 'knife' 'keyboard' 'elephant' 'dog' 'clock' 'chair'
  'cat' 'car' 'bottle' 'boat' 'bird' 'bicycle' 'bear' 'airplane']
 ['truck' 'oven' 'knife' 'keyboard' 'elephant' 'dog' 'clock' 'chair'
  'cat' 'car' 'bottle' 'boat' 'bird' 'bicycle' 'bear' 'airplane']
 ['truck' 'oven' 'knife' 'keyboard' 'elephant' 'dog' 'clock' 'chair'
  'cat' 'car' 'bottle' 'boat' 'bird' 'bicycle' 'bear' 'airplane']
 ['truck' 'oven' 'knife' 'keyboard' 'elephant' 'dog' 'clock' 'chair'
  'cat' 'car' 'bottle' 'boat' 'bird' 'bicycle' 'bear' 'airplane']
 ['truck' 'oven' 'knife' 'keyboard' 'elephant' 'dog' 'clock' 'chair'
  'cat' 'car' 'bottle' 'boat' 'bird' 'bicycle' 'bear' 'airplane']
 ['truck' 'oven' 'knife' 'keyboard' 'elephant' 'dog' 'clock' 'chair'
  'cat' 'car' 'bottle' 'boat' 'bird' 'bicycle' 'bear' 'airplane']
 ['truck' 'oven' 'knife' 'keyboard' 'elephant' 'dog' 'clock' 'chair'
  'cat' 'car' 'bottle' 'boat' 'bird' 'bicycle' 'bear' 'airplane']
 ['truck' 'oven' 'knife' 'keyboard' 'elephant' 'clock' 'chair' 'cat'
  'car' 'boat' 'bird' 'bicycle' 'bear' 'airplane' 'bottle' 'dog']
 ['truck' 'oven' 'knife' 'keyboard' 'elephant' 'dog' 'clock' 'chair'
  'cat' 'car' 'bottle' 'boat' 'bird' 'bicycle' 'bear' 'airplane']
 ['truck' 'oven' 'knife' 'keyboard' 'elephant' 'dog' 'clock' 'chair'
  'cat' 'car' 'bottle' 'boat' 'bird' 'bicycle' 'bear' 'airplane']
 ['truck' 'oven' 'knife' 'keyboard' 'elephant' 'dog' 'clock' 'chair'
  'cat' 'car' 'bottle' 'boat' 'bird' 'bicycle' 'bear' 'airplane']
 ['truck' 'oven' 'knife' 'keyboard' 'elephant' 'dog' 'clock' 'chair'
  'cat' 'car' 'bottle' 'boat' 'bird' 'bicycle' 'bear' 'airplane']
 ['truck' 'oven' 'knife' 'keyboard' 'elephant' 'dog' 'clock' 'chair'
  'cat' 'car' 'bottle' 'boat' 'bird' 'bicycle' 'bear' 'airplane']
 ['truck' 'oven' 'knife' 'keyboard' 'elephant' 'dog' 'clock' 'chair'
  'cat' 'car' 'bottle' 'boat' 'bird' 'bicycle' 'bear' 'airplane']
 ['truck' 'oven' 'knife' 'keyboard' 'elephant' 'dog' 'clock' 'chair'
  'cat' 'car' 'bottle' 'boat' 'bird' 'bicycle' 'bear' 'airplane']
 ['truck' 'oven' 'knife' 'keyboard' 'elephant' 'dog' 'clock' 'chair'
  'cat' 'car' 'bottle' 'boat' 'bird' 'bicycle' 'bear' 'airplane']
 ['truck' 'oven' 'knife' 'keyboard' 'elephant' 'dog' 'clock' 'chair'
  'cat' 'car' 'bottle' 'boat' 'bird' 'bicycle' 'bear' 'airplane']
 ['truck' 'oven' 'knife' 'keyboard' 'elephant' 'dog' 'clock' 'chair'
  'cat' 'car' 'bottle' 'boat' 'bird' 'bicycle' 'bear' 'airplane']
 ['truck' 'oven' 'knife' 'keyboard' 'elephant' 'dog' 'clock' 'chair'
  'cat' 'car' 'bottle' 'boat' 'bird' 'bicycle' 'bear' 'airplane']
 ['truck' 'oven' 'knife' 'keyboard' 'elephant' 'dog' 'clock' 'chair'
  'cat' 'car' 'bottle' 'boat' 'bird' 'bicycle' 'bear' 'airplane']
 ['truck' 'oven' 'knife' 'keyboard' 'elephant' 'dog' 'clock' 'chair'
  'cat' 'car' 'bottle' 'boat' 'bird' 'bicycle' 'bear' 'airplane']
 ['truck' 'oven' 'knife' 'keyboard' 'elephant' 'dog' 'clock' 'chair'
  'cat' 'car' 'bottle' 'boat' 'bird' 'bicycle' 'bear' 'airplane']
 ['truck' 'oven' 'knife' 'keyboard' 'elephant' 'dog' 'clock' 'chair'
  'cat' 'car' 'bottle' 'boat' 'bird' 'bicycle' 'bear' 'airplane']
 ['truck' 'oven' 'knife' 'keyboard' 'elephant' 'dog' 'clock' 'chair'
  'cat' 'car' 'bottle' 'boat' 'bird' 'bicycle' 'bear' 'airplane']
 ['truck' 'oven' 'knife' 'keyboard' 'elephant' 'dog' 'clock' 'chair'
  'cat' 'car' 'bottle' 'boat' 'bird' 'bicycle' 'bear' 'airplane']
 ['truck' 'oven' 'knife' 'keyboard' 'elephant' 'dog' 'clock' 'chair'
  'cat' 'car' 'bottle' 'boat' 'bird' 'bicycle' 'bear' 'airplane']]",bird,NaN,bird2.png
xception,1,9,NaN,"[['bird' 'truck' 'oven' 'knife' 'keyboard' 'elephant' 'clock' 'chair'
  'cat' 'car' 'bottle' 'bicycle' 'bear' 'airplane' 'boat' 'dog']
 ['dog' 'cat' 'bottle' 'truck' 'oven' 'knife' 'keyboard' 'elephant'
  'chair' 'boat' 'bird' 'bicycle' 'bear' 'airplane' 'clock' 'car']
 ['dog' 'cat' 'bottle' 'truck' 'oven' 'knife' 'keyboard' 'elephant'
  'chair' 'boat' 'bird' 'bicycle' 'bear' 'airplane' 'clock' 'car']
 ['truck' 'oven' 'knife' 'keyboard' 'elephant' 'clock' 'chair' 'cat'
  'car' 'bottle' 'bird' 'bicycle' 'bear' 'airplane' 'boat' 'dog']
 ['bird' 'cat' 'bottle' 'truck' 'oven' 'knife' 'keyboard' 'elephant'
  'dog' 'chair' 'boat' 'bicycle' 'bear' 'airplane' 'clock' 'car']
 ['bottle' 'truck' 'oven' 'knife' 'keyboard' 'elephant' 'clock' 'chair'
  'cat' 'car' 'boat' 'bird' 'bicycle' 'bear' 'airplane' 'dog']
 ['boat' 'bird' 'truck' 'oven' 'knife' 'keyboard' 'elephant' 'clock'
  'chair' 'cat' 'car' 'bottle' 'bicycle' 'bear' 'airplane' 'dog']
 ['dog' 'truck' 'oven' 'knife' 'keyboard' 'elephant' 'clock' 'chair'
  'cat' 'car' 'bottle' 'boat' 'bird' 'bicycle' 'bear' 'airplane']
 ['dog' 'truck' 'oven' 'knife' 'keyboard' 'elephant' 'clock' 'chair'
  'cat' 'car' 'boat' 'bicycle' 'bear' 'airplane' 'bottle' 'bird']
 ['cat' 'bottle' 'truck' 'oven' 'knife' 'keyboard' 'elephant' 'chair'
  'boat' 'bird' 'bicycle' 'bear' 'airplane' 'clock' 'car' 'dog']
 ['dog' 'truck' 'oven' 'knife' 'keyboard' 'elephant' 'clock' 'chair'
  'cat' 'car' 'bottle' 'boat' 'bird' 'bicycle' 'bear' 'airplane']
 ['bottle' 'truck' 'oven' 'knife' 'keyboard' 'elephant' 'clock' 'chair'
  'cat' 'car' 'boat' 'bird' 'bicycle' 'bear' 'airplane' 'dog']
 ['clock' 'car' 'truck' 'oven' 'knife' 'keyboard' 'elephant' 'chair'
  'boat' 'bird' 'bicycle' 'bear' 'airplane' 'cat' 'bottle' 'dog']
 ['bird' 'cat' 'bottle' 'truck' 'oven' 'knife' 'keyboard' 'elephant'
  'chair' 'boat' 'bicycle' 'bear' 'airplane' 'clock' 'car' 'dog']
 ['truck' 'oven' 'knife' 'keyboard' 'elephant' 'clock' 'chair' 'cat'
  'car' 'bottle' 'boat' 'bird' 'bicycle' 'bear' 'airplane' 'dog']
 ['dog' 'cat' 'bottle' 'truck' 'oven' 'knife' 'keyboard' 'elephant'
  'chair' 'boat' 'bird' 'bicycle' 'bear' 'airplane' 'clock' 'car']
 ['dog' 'cat' 'bottle' 'truck' 'oven' 'knife' 'keyboard' 'elephant'
  'chair' 'boat' 'bird' 'bicycle' 'bear' 'airplane' 'clock' 'car']
 ['truck' 'oven' 'knife' 'keyboard' 'elephant' 'clock' 'chair' 'cat'
  'car' 'bottle' 'bird' 'bicycle' 'bear' 'airplane' 'dog' 'boat']
 ['dog' 'clock' 'car' 'truck' 'oven' 'knife' 'keyboard' 'elephant'
  'chair' 'boat' 'bird' 'bicycle' 'bear' 'airplane' 'cat' 'bottle']
 ['dog' 'truck' 'oven' 'knife' 'keyboard' 'elephant' 'clock' 'chair'
  'cat' 'car' 'boat' 'bicycle' 'bear' 'airplane' 'bottle' 'bird']
 ['dog' 'boat' 'truck' 'oven' 'knife' 'keyboard' 'elephant' 'clock'
  'chair' 'cat' 'car' 'bottle' 'bird' 'bicycle' 'bear' 'airplane']
 ['clock' 'car' 'truck' 'oven' 'knife' 'keyboard' 'elephant' 'chair'
  'boat' 'bicycle' 'bear' 'airplane' 'cat' 'bottle' 'bird' 'dog']
 ['truck' 'oven' 'knife' 'keyboard' 'elephant' 'clock' 'chair' 'cat'
  'car' 'boat' 'bird' 'bicycle' 'bear' 'airplane' 'bottle' 'dog']
 ['clock' 'car' 'truck' 'oven' 'knife' 'keyboard' 'elephant' 'dog'
  'chair' 'boat' 'bird' 'bicycle' 'bear' 'airplane' 'cat' 'bottle']
 ['bottle' 'dog' 'cat' 'boat' 'bird' 'truck' 'oven' 'knife' 'keyboard'
  'elephant' 'clock' 'chair' 'car' 'bicycle' 'bear' 'airplane']
 ['bottle' 'truck' 'oven' 'knife' 'keyboard' 'elephant' 'clock' 'chair'
  'cat' 'car' 'boat' 'bird' 'bicycle' 'bear' 'airplane' 'dog']
 ['dog' 'cat' 'bottle' 'bird' 'truck' 'oven' 'knife' 'keyboard'
  'elephant' 'chair' 'boat' 'bicycle' 'bear' 'airplane' 'clock' 'car']
 ['truck' 'oven' 'knife' 'keyboard' 'elephant' 'clock' 'chair' 'cat'
  'car' 'boat' 'bird' 'bicycle' 'bear' 'airplane' 'dog' 'bottle']
 ['dog' 'truck' 'oven' 'knife' 'keyboard' 'elephant' 'clock' 'chair'
  'cat' 'car' 'boat' 'bicycle' 'bear' 'airplane' 'bottle' 'bird']
 ['dog' 'bottle' 'truck' 'oven' 'knife' 'keyboard' 'elephant' 'clock'
  'chair' 'cat' 'car' 'boat' 'bird' 'bicycle' 'bear' 'airplane']
 ['boat' 'bird' 'truck' 'oven' 'knife' 'keyboard' 'elephant' 'clock'
  'chair' 'cat' 'car' 'bottle' 'bicycle' 'bear' 'airplane' 'dog']
 ['dog' 'bottle' 'truck' 'oven' 'knife' 'keyboard' 'elephant' 'clock'
  'chair' 'cat' 'car' 'boat' 'bird' 'bicycle' 'bear' 'airplane']]",bird,NaN,bird3.png
xception,1,10,NaN,"[['bird' 'dog' 'cat' 'bottle' 'truck' 'oven' 'knife' 'keyboard'
  'elephant' 'chair' 'boat' 'bicycle' 'bear' 'airplane' 'clock' 'car']
 ['bird' 'truck' 'oven' 'knife' 'keyboard' 'elephant' 'clock' 'chair'
  'car' 'bicycle' 'bear' 'airplane' 'cat' 'boat' 'bottle' 'dog']
 ['bird' 'dog' 'boat' 'truck' 'oven' 'knife' 'keyboard' 'elephant'
  'clock' 'chair' 'cat' 'car' 'bottle' 'bicycle' 'bear' 'airplane']
 ['bird' 'dog' 'truck' 'oven' 'knife' 'keyboard' 'elephant' 'clock'
  'chair' 'cat' 'car' 'bottle' 'boat' 'bicycle' 'bear' 'airplane']
 ['bird' 'dog' 'boat' 'truck' 'oven' 'knife' 'keyboard' 'elephant'
  'clock' 'chair' 'cat' 'car' 'bottle' 'bicycle' 'bear' 'airplane']
 ['bird' 'truck' 'oven' 'knife' 'keyboard' 'elephant' 'dog' 'clock'
  'chair' 'cat' 'car' 'boat' 'bicycle' 'bear' 'airplane' 'bottle']
 ['bird' 'dog' 'boat' 'truck' 'oven' 'knife' 'keyboard' 'elephant'
  'clock' 'chair' 'cat' 'car' 'bottle' 'bicycle' 'bear' 'airplane']
 ['bird' 'cat' 'bottle' 'truck' 'oven' 'knife' 'keyboard' 'elephant'
  'dog' 'chair' 'boat' 'bicycle' 'bear' 'airplane' 'clock' 'car']
 ['bird' 'bottle' 'truck' 'oven' 'knife' 'keyboard' 'elephant' 'dog'
  'clock' 'chair' 'cat' 'car' 'boat' 'bicycle' 'bear' 'airplane']
 ['bird' 'bottle' 'truck' 'oven' 'knife' 'keyboard' 'elephant' 'clock'
  'chair' 'cat' 'car' 'boat' 'bicycle' 'bear' 'airplane' 'dog']
 ['bird' 'bottle' 'cat' 'boat' 'truck' 'oven' 'knife' 'keyboard'
  'elephant' 'dog' 'clock' 'chair' 'car' 'bicycle' 'bear' 'airplane']
 ['bird' 'dog' 'boat' 'truck' 'oven' 'knife' 'keyboard' 'elephant'
  'clock' 'chair' 'cat' 'car' 'bottle' 'bicycle' 'bear' 'airplane']
 ['bird' 'truck' 'oven' 'knife' 'keyboard' 'elephant' 'clock' 'chair'
  'cat' 'car' 'bottle' 'bicycle' 'bear' 'airplane' 'boat' 'dog']
 ['bird' 'bottle' 'truck' 'oven' 'knife' 'keyboard' 'elephant' 'dog'
  'clock' 'chair' 'cat' 'car' 'boat' 'bicycle' 'bear' 'airplane']
 ['bird' 'cat' 'bottle' 'truck' 'oven' 'knife' 'keyboard' 'elephant'
  'chair' 'boat' 'bicycle' 'bear' 'airplane' 'dog' 'clock' 'car']
 ['bird' 'dog' 'clock' 'car' 'truck' 'oven' 'knife' 'keyboard' 'elephant'
  'chair' 'boat' 'bicycle' 'bear' 'airplane' 'cat' 'bottle']
 ['bird' 'dog' 'truck' 'oven' 'knife' 'keyboard' 'elephant' 'clock'
  'chair' 'cat' 'car' 'bottle' 'bicycle' 'bear' 'airplane' 'boat']
 ['bird' 'truck' 'oven' 'knife' 'keyboard' 'elephant' 'clock' 'chair'
  'cat' 'car' 'boat' 'bicycle' 'bear' 'airplane' 'dog' 'bottle']
 ['bird' 'truck' 'oven' 'knife' 'keyboard' 'elephant' 'clock' 'chair'
  'cat' 'car' 'boat' 'bicycle' 'bear' 'airplane' 'bottle' 'dog']
 ['bird' 'dog' 'bottle' 'truck' 'oven' 'knife' 'keyboard' 'elephant'
  'clock' 'chair' 'cat' 'car' 'boat' 'bicycle' 'bear' 'airplane']
 ['bird' 'dog' 'bottle' 'cat' 'boat' 'truck' 'oven' 'knife' 'keyboard'
  'elephant' 'clock' 'chair' 'car' 'bicycle' 'bear' 'airplane']
 ['bird' 'dog' 'boat' 'truck' 'oven' 'knife' 'keyboard' 'elephant'
  'clock' 'chair' 'cat' 'car' 'bottle' 'bicycle' 'bear' 'airplane']
 ['bird' 'cat' 'bottle' 'truck' 'oven' 'knife' 'keyboard' 'elephant'
  'chair' 'boat' 'bicycle' 'bear' 'airplane' 'dog' 'clock' 'car']
 ['bird' 'truck' 'oven' 'knife' 'keyboard' 'elephant' 'clock' 'chair'
  'cat' 'car' 'bottle' 'boat' 'bicycle' 'bear' 'airplane' 'dog']
 ['bird' 'truck' 'oven' 'knife' 'keyboard' 'elephant' 'clock' 'chair'
  'cat' 'car' 'boat' 'bicycle' 'bear' 'airplane' 'dog' 'bottle']
 ['bird' 'truck' 'oven' 'knife' 'keyboard' 'elephant' 'clock' 'chair'
  'cat' 'car' 'boat' 'bicycle' 'bear' 'airplane' 'bottle' 'dog']
 ['bird' 'dog' 'bottle' 'truck' 'oven' 'knife' 'keyboard' 'elephant'
  'clock' 'chair' 'cat' 'car' 'boat' 'bicycle' 'bear' 'airplane']
 ['bird' 'dog' 'boat' 'truck' 'oven' 'knife' 'keyboard' 'elephant'
  'clock' 'chair' 'cat' 'car' 'bottle' 'bicycle' 'bear' 'airplane']
 ['bird' 'clock' 'car' 'truck' 'oven' 'knife' 'keyboard' 'elephant'
  'chair' 'boat' 'bicycle' 'bear' 'airplane' 'dog' 'cat' 'bottle']
 ['bird' 'dog' 'boat' 'truck' 'oven' 'knife' 'keyboard' 'elephant'
  'clock' 'chair' 'cat' 'car' 'bottle' 'bicycle' 'bear' 'airplane']
 ['bird' 'dog' 'boat' 'truck' 'oven' 'knife' 'keyboard' 'elephant'
  'clock' 'chair' 'cat' 'car' 'bottle' 'bicycle' 'bear' 'airplane']
 ['bird' 'truck' 'oven' 'knife' 'keyboard' 'elephant' 'clock' 'chair'
  'car' 'bicycle' 'bear' 'airplane' 'dog' 'cat' 'boat' 'bottle']]",bird,NaN,bird4.png
xception,1,11,NaN,"[['bird' 'dog' 'cat' 'bottle' 'truck' 'oven' 'knife' 'keyboard'
  'elephant' 'chair' 'boat' 'bicycle' 'bear' 'airplane' 'clock' 'car']
 ['bird' 'dog' 'boat' 'truck' 'oven' 'knife' 'keyboard' 'elephant'
  'clock' 'chair' 'cat' 'car' 'bottle' 'bicycle' 'bear' 'airplane']
 ['bird' 'dog' 'bottle' 'cat' 'boat' 'truck' 'oven' 'knife' 'keyboard'
  'elephant' 'clock' 'chair' 'car' 'bicycle' 'bear' 'airplane']
 ['bird' 'dog' 'boat' 'truck' 'oven' 'knife' 'keyboard' 'elephant'
  'clock' 'chair' 'cat' 'car' 'bottle' 'bicycle' 'bear' 'airplane']
 ['bird' 'boat' 'truck' 'oven' 'knife' 'keyboard' 'elephant' 'clock'
  'chair' 'cat' 'car' 'bottle' 'bicycle' 'bear' 'airplane' 'dog']
 ['bird' 'truck' 'oven' 'knife' 'keyboard' 'elephant' 'clock' 'chair'
  'cat' 'car' 'bottle' 'bicycle' 'bear' 'airplane' 'boat' 'dog']
 ['bird' 'dog' 'cat' 'bottle' 'truck' 'oven' 'knife' 'keyboard'
  'elephant' 'chair' 'boat' 'bicycle' 'bear' 'airplane' 'clock' 'car']
 ['bird' 'dog' 'clock' 'car' 'truck' 'oven' 'knife' 'keyboard' 'elephant'
  'chair' 'boat' 'bicycle' 'bear' 'airplane' 'cat' 'bottle']
 ['bird' 'dog' 'truck' 'oven' 'knife' 'keyboard' 'elephant' 'clock'
  'chair' 'cat' 'car' 'boat' 'bicycle' 'bear' 'airplane' 'bottle']
 ['bird' 'dog' 'truck' 'oven' 'knife' 'keyboard' 'elephant' 'clock'
  'chair' 'cat' 'car' 'boat' 'bicycle' 'bear' 'airplane' 'bottle']
 ['bird' 'bottle' 'dog' 'cat' 'boat' 'truck' 'oven' 'knife' 'keyboard'
  'elephant' 'clock' 'chair' 'car' 'bicycle' 'bear' 'airplane']
 ['bird' 'boat' 'truck' 'oven' 'knife' 'keyboard' 'elephant' 'clock'
  'chair' 'cat' 'car' 'bottle' 'bicycle' 'bear' 'airplane' 'dog']
 ['bird' 'truck' 'oven' 'knife' 'keyboard' 'elephant' 'clock' 'chair'
  'cat' 'car' 'bottle' 'boat' 'bicycle' 'bear' 'airplane' 'dog']
 ['bird' 'truck' 'oven' 'knife' 'keyboard' 'elephant' 'dog' 'clock'
  'chair' 'cat' 'car' 'boat' 'bicycle' 'bear' 'airplane' 'bottle']
 ['bird' 'bottle' 'truck' 'oven' 'knife' 'keyboard' 'elephant' 'clock'
  'chair' 'cat' 'car' 'boat' 'bicycle' 'bear' 'airplane' 'dog']
 ['bird' 'dog' 'truck' 'oven' 'knife' 'keyboard' 'elephant' 'clock'
  'chair' 'cat' 'car' 'bottle' 'bicycle' 'bear' 'airplane' 'boat']
 ['bird' 'dog' 'boat' 'truck' 'oven' 'knife' 'keyboard' 'elephant'
  'clock' 'chair' 'cat' 'car' 'bottle' 'bicycle' 'bear' 'airplane']
 ['bird' 'clock' 'car' 'truck' 'oven' 'knife' 'keyboard' 'elephant'
  'chair' 'boat' 'bicycle' 'bear' 'airplane' 'cat' 'bottle' 'dog']
 ['bird' 'truck' 'oven' 'knife' 'keyboard' 'elephant' 'dog' 'clock'
  'chair' 'cat' 'car' 'bottle' 'boat' 'bicycle' 'bear' 'airplane']
 ['bird' 'dog' 'bottle' 'cat' 'boat' 'truck' 'oven' 'knife' 'keyboard'
  'elephant' 'clock' 'chair' 'car' 'bicycle' 'bear' 'airplane']
 ['bird' 'cat' 'bottle' 'truck' 'oven' 'knife' 'keyboard' 'elephant'
  'chair' 'boat' 'bicycle' 'bear' 'airplane' 'clock' 'car' 'dog']
 ['bird' 'truck' 'oven' 'knife' 'keyboard' 'elephant' 'clock' 'chair'
  'car' 'bicycle' 'bear' 'airplane' 'cat' 'boat' 'bottle' 'dog']
 ['bird' 'bottle' 'truck' 'oven' 'knife' 'keyboard' 'elephant' 'clock'
  'chair' 'cat' 'car' 'boat' 'bicycle' 'bear' 'airplane' 'dog']
 ['bird' 'dog' 'clock' 'car' 'truck' 'oven' 'knife' 'keyboard' 'elephant'
  'chair' 'boat' 'bicycle' 'bear' 'airplane' 'cat' 'bottle']
 ['bird' 'truck' 'oven' 'knife' 'keyboard' 'elephant' 'clock' 'chair'
  'car' 'bicycle' 'bear' 'airplane' 'cat' 'boat' 'bottle' 'dog']
 ['bird' 'dog' 'clock' 'car' 'truck' 'oven' 'knife' 'keyboard' 'elephant'
  'chair' 'boat' 'bicycle' 'bear' 'airplane' 'cat' 'bottle']
 ['bird' 'truck' 'oven' 'knife' 'keyboard' 'elephant' 'clock' 'chair'
  'cat' 'car' 'bottle' 'bicycle' 'bear' 'airplane' 'boat' 'dog']
 ['bird' 'truck' 'oven' 'knife' 'keyboard' 'elephant' 'clock' 'chair'
  'car' 'bicycle' 'bear' 'airplane' 'cat' 'boat' 'bottle' 'dog']
 ['bird' 'boat' 'truck' 'oven' 'knife' 'keyboard' 'elephant' 'clock'
  'chair' 'cat' 'car' 'bottle' 'bicycle' 'bear' 'airplane' 'dog']
 ['bird' 'dog' 'boat' 'truck' 'oven' 'knife' 'keyboard' 'elephant'
  'clock' 'chair' 'cat' 'car' 'bottle' 'bicycle' 'bear' 'airplane']
 ['bird' 'dog' 'boat' 'truck' 'oven' 'knife' 'keyboard' 'elephant'
  'clock' 'chair' 'cat' 'car' 'bottle' 'bicycle' 'bear' 'airplane']
 ['bird' 'dog' 'clock' 'car' 'truck' 'oven' 'knife' 'keyboard' 'elephant'
  'chair' 'boat' 'bicycle' 'bear' 'airplane' 'cat' 'bottle']]",bird,NaN,bird5.png
xception,1,12,NaN,"[['bird' 'dog' 'cat' 'bottle' 'truck' 'oven' 'knife' 'keyboard'
  'elephant' 'chair' 'boat' 'bicycle' 'bear' 'airplane' 'clock' 'car']
 ['bird' 'clock' 'car' 'truck' 'oven' 'knife' 'keyboard' 'elephant'
  'chair' 'boat' 'bicycle' 'bear' 'airplane' 'cat' 'bottle' 'dog']
 ['bird' 'dog' 'bottle' 'cat' 'boat' 'truck' 'oven' 'knife' 'keyboard'
  'elephant' 'clock' 'chair' 'car' 'bicycle' 'bear' 'airplane']
 ['bird' 'truck' 'oven' 'knife' 'keyboard' 'elephant' 'clock' 'chair'
  'cat' 'car' 'boat' 'bicycle' 'bear' 'airplane' 'bottle' 'dog']
 ['bird' 'boat' 'truck' 'oven' 'knife' 'keyboard' 'elephant' 'clock'
  'chair' 'cat' 'car' 'bottle' 'bicycle' 'bear' 'airplane' 'dog']
 ['bird' 'dog' 'clock' 'car' 'truck' 'oven' 'knife' 'keyboard' 'elephant'
  'chair' 'boat' 'bicycle' 'bear' 'airplane' 'cat' 'bottle']
 ['bird' 'dog' 'truck' 'oven' 'knife' 'keyboard' 'elephant' 'clock'
  'chair' 'cat' 'car' 'bottle' 'bicycle' 'bear' 'airplane' 'boat']
 ['bird' 'truck' 'oven' 'knife' 'keyboard' 'elephant' 'dog' 'clock'
  'chair' 'cat' 'car' 'bottle' 'bicycle' 'bear' 'airplane' 'boat']
 ['bird' 'truck' 'oven' 'knife' 'keyboard' 'elephant' 'dog' 'clock'
  'chair' 'cat' 'car' 'boat' 'bicycle' 'bear' 'airplane' 'bottle']
 ['bird' 'dog' 'truck' 'oven' 'knife' 'keyboard' 'elephant' 'clock'
  'chair' 'cat' 'car' 'boat' 'bicycle' 'bear' 'airplane' 'bottle']
 ['bird' 'truck' 'oven' 'knife' 'keyboard' 'elephant' 'clock' 'chair'
  'cat' 'car' 'bottle' 'bicycle' 'bear' 'airplane' 'boat' 'dog']
 ['bird' 'dog' 'cat' 'bottle' 'truck' 'oven' 'knife' 'keyboard'
  'elephant' 'chair' 'boat' 'bicycle' 'bear' 'airplane' 'clock' 'car']
 ['bird' 'dog' 'cat' 'bottle' 'truck' 'oven' 'knife' 'keyboard'
  'elephant' 'chair' 'boat' 'bicycle' 'bear' 'airplane' 'clock' 'car']
 ['bird' 'truck' 'oven' 'knife' 'keyboard' 'elephant' 'clock' 'chair'
  'cat' 'car' 'bottle' 'bicycle' 'bear' 'airplane' 'boat' 'dog']
 ['bird' 'dog' 'truck' 'oven' 'knife' 'keyboard' 'elephant' 'clock'
  'chair' 'cat' 'car' 'bottle' 'boat' 'bicycle' 'bear' 'airplane']
 ['bird' 'truck' 'oven' 'knife' 'keyboard' 'elephant' 'clock' 'chair'
  'car' 'bicycle' 'bear' 'airplane' 'cat' 'boat' 'dog' 'bottle']
 ['bird' 'dog' 'cat' 'bottle' 'truck' 'oven' 'knife' 'keyboard'
  'elephant' 'chair' 'boat' 'bicycle' 'bear' 'airplane' 'clock' 'car']
 ['bird' 'bottle' 'truck' 'oven' 'knife' 'keyboard' 'elephant' 'clock'
  'chair' 'cat' 'car' 'boat' 'bicycle' 'bear' 'airplane' 'dog']
 ['bird' 'clock' 'car' 'truck' 'oven' 'knife' 'keyboard' 'elephant'
  'chair' 'boat' 'bicycle' 'bear' 'airplane' 'dog' 'cat' 'bottle']
 ['bird' 'truck' 'oven' 'knife' 'keyboard' 'elephant' 'clock' 'chair'
  'cat' 'car' 'bottle' 'boat' 'bicycle' 'bear' 'airplane' 'dog']
 ['bird' 'truck' 'oven' 'knife' 'keyboard' 'elephant' 'clock' 'chair'
  'cat' 'car' 'bottle' 'bicycle' 'bear' 'airplane' 'boat' 'dog']
 ['bird' 'dog' 'boat' 'truck' 'oven' 'knife' 'keyboard' 'elephant'
  'clock' 'chair' 'cat' 'car' 'bottle' 'bicycle' 'bear' 'airplane']
 ['bird' 'dog' 'boat' 'truck' 'oven' 'knife' 'keyboard' 'elephant'
  'clock' 'chair' 'cat' 'car' 'bottle' 'bicycle' 'bear' 'airplane']
 ['bird' 'boat' 'truck' 'oven' 'knife' 'keyboard' 'elephant' 'clock'
  'chair' 'cat' 'car' 'bottle' 'bicycle' 'bear' 'airplane' 'dog']
 ['bird' 'truck' 'oven' 'knife' 'keyboard' 'elephant' 'clock' 'chair'
  'car' 'bicycle' 'bear' 'airplane' 'dog' 'cat' 'boat' 'bottle']
 ['bird' 'truck' 'oven' 'knife' 'keyboard' 'elephant' 'clock' 'chair'
  'cat' 'car' 'bottle' 'bicycle' 'bear' 'airplane' 'boat' 'dog']
 ['bird' 'truck' 'oven' 'knife' 'keyboard' 'elephant' 'dog' 'clock'
  'chair' 'cat' 'car' 'bottle' 'bicycle' 'bear' 'airplane' 'boat']
 ['bird' 'dog' 'clock' 'car' 'truck' 'oven' 'knife' 'keyboard' 'elephant'
  'chair' 'boat' 'bicycle' 'bear' 'airplane' 'cat' 'bottle']
 ['bird' 'truck' 'oven' 'knife' 'keyboard' 'elephant' 'dog' 'clock'
  'chair' 'cat' 'car' 'boat' 'bicycle' 'bear' 'airplane' 'bottle']
 ['bird' 'truck' 'oven' 'knife' 'keyboard' 'elephant' 'clock' 'chair'
  'car' 'bicycle' 'bear' 'airplane' 'cat' 'boat' 'bottle' 'dog']
 ['bird' 'dog' 'boat' 'truck' 'oven' 'knife' 'keyboard' 'elephant'
  'clock' 'chair' 'cat' 'car' 'bottle' 'bicycle' 'bear' 'airplane']
 ['bird' 'dog' 'clock' 'car' 'truck' 'oven' 'knife' 'keyboard' 'elephant'
  'chair' 'boat' 'bicycle' 'bear' 'airplane' 'cat' 'bottle']]",bird,NaN,bird6.png
xception,1,13,NaN,"[['bird' 'dog' 'clock' 'car' 'truck' 'oven' 'knife' 'keyboard' 'elephant'
  'chair' 'boat' 'bicycle' 'bear' 'airplane' 'cat' 'bottle']
 ['bird' 'dog' 'truck' 'oven' 'knife' 'keyboard' 'elephant' 'clock'
  'chair' 'cat' 'car' 'boat' 'bicycle' 'bear' 'airplane' 'bottle']
 ['bird' 'bottle' 'truck' 'oven' 'knife' 'keyboard' 'elephant' 'clock'
  'chair' 'cat' 'car' 'boat' 'bicycle' 'bear' 'airplane' 'dog']
 ['bird' 'dog' 'clock' 'car' 'truck' 'oven' 'knife' 'keyboard' 'elephant'
  'chair' 'boat' 'bicycle' 'bear' 'airplane' 'cat' 'bottle']
 ['bird' 'bottle' 'truck' 'oven' 'knife' 'keyboard' 'elephant' 'dog'
  'clock' 'chair' 'cat' 'car' 'boat' 'bicycle' 'bear' 'airplane']
 ['bird' 'dog' 'clock' 'car' 'truck' 'oven' 'knife' 'keyboard' 'elephant'
  'chair' 'boat' 'bicycle' 'bear' 'airplane' 'cat' 'bottle']
 ['bird' 'cat' 'bottle' 'truck' 'oven' 'knife' 'keyboard' 'elephant'
  'chair' 'boat' 'bicycle' 'bear' 'airplane' 'dog' 'clock' 'car']
 ['bird' 'truck' 'oven' 'knife' 'keyboard' 'elephant' 'clock' 'chair'
  'car' 'bicycle' 'bear' 'airplane' 'cat' 'boat' 'bottle' 'dog']
 ['bird' 'dog' 'bottle' 'cat' 'boat' 'truck' 'oven' 'knife' 'keyboard'
  'elephant' 'clock' 'chair' 'car' 'bicycle' 'bear' 'airplane']
 ['bird' 'truck' 'oven' 'knife' 'keyboard' 'elephant' 'clock' 'chair'
  'cat' 'car' 'bottle' 'bicycle' 'bear' 'airplane' 'boat' 'dog']
 ['bird' 'dog' 'truck' 'oven' 'knife' 'keyboard' 'elephant' 'clock'
  'chair' 'cat' 'car' 'boat' 'bicycle' 'bear' 'airplane' 'bottle']
 ['bird' 'truck' 'oven' 'knife' 'keyboard' 'elephant' 'clock' 'chair'
  'cat' 'car' 'bottle' 'boat' 'bicycle' 'bear' 'airplane' 'dog']
 ['bird' 'dog' 'clock' 'car' 'truck' 'oven' 'knife' 'keyboard' 'elephant'
  'chair' 'boat' 'bicycle' 'bear' 'airplane' 'cat' 'bottle']
 ['bird' 'truck' 'oven' 'knife' 'keyboard' 'elephant' 'dog' 'clock'
  'chair' 'cat' 'car' 'boat' 'bicycle' 'bear' 'airplane' 'bottle']
 ['bird' 'boat' 'truck' 'oven' 'knife' 'keyboard' 'elephant' 'clock'
  'chair' 'cat' 'car' 'bottle' 'bicycle' 'bear' 'airplane' 'dog']
 ['bird' 'truck' 'oven' 'knife' 'keyboard' 'elephant' 'clock' 'chair'
  'car' 'bicycle' 'bear' 'airplane' 'cat' 'boat' 'bottle' 'dog']
 ['bird' 'dog' 'boat' 'truck' 'oven' 'knife' 'keyboard' 'elephant'
  'clock' 'chair' 'cat' 'car' 'bottle' 'bicycle' 'bear' 'airplane']
 ['bird' 'bottle' 'truck' 'oven' 'knife' 'keyboard' 'elephant' 'dog'
  'clock' 'chair' 'cat' 'car' 'boat' 'bicycle' 'bear' 'airplane']
 ['bird' 'boat' 'truck' 'oven' 'knife' 'keyboard' 'elephant' 'clock'
  'chair' 'cat' 'car' 'bottle' 'bicycle' 'bear' 'airplane' 'dog']
 ['bird' 'truck' 'oven' 'knife' 'keyboard' 'elephant' 'clock' 'chair'
  'cat' 'car' 'bottle' 'bicycle' 'bear' 'airplane' 'boat' 'dog']
 ['bird' 'dog' 'bottle' 'truck' 'oven' 'knife' 'keyboard' 'elephant'
  'clock' 'chair' 'cat' 'car' 'boat' 'bicycle' 'bear' 'airplane']
 ['bird' 'truck' 'oven' 'knife' 'keyboard' 'elephant' 'clock' 'chair'
  'cat' 'car' 'boat' 'bicycle' 'bear' 'airplane' 'bottle' 'dog']
 ['bird' 'truck' 'oven' 'knife' 'keyboard' 'elephant' 'clock' 'chair'
  'cat' 'car' 'bottle' 'boat' 'bicycle' 'bear' 'airplane' 'dog']
 ['bird' 'truck' 'oven' 'knife' 'keyboard' 'elephant' 'dog' 'clock'
  'chair' 'cat' 'car' 'bottle' 'boat' 'bicycle' 'bear' 'airplane']
 ['bird' 'dog' 'truck' 'oven' 'knife' 'keyboard' 'elephant' 'clock'
  'chair' 'cat' 'car' 'boat' 'bicycle' 'bear' 'airplane' 'bottle']
 ['bird' 'truck' 'oven' 'knife' 'keyboard' 'elephant' 'clock' 'chair'
  'cat' 'car' 'bottle' 'boat' 'bicycle' 'bear' 'airplane' 'dog']
 ['bird' 'truck' 'oven' 'knife' 'keyboard' 'elephant' 'clock' 'chair'
  'car' 'bicycle' 'bear' 'airplane' 'cat' 'boat' 'bottle' 'dog']
 ['bird' 'truck' 'oven' 'knife' 'keyboard' 'elephant' 'clock' 'chair'
  'cat' 'car' 'bottle' 'bicycle' 'bear' 'airplane' 'dog' 'boat']
 ['bird' 'dog' 'boat' 'truck' 'oven' 'knife' 'keyboard' 'elephant'
  'clock' 'chair' 'cat' 'car' 'bottle' 'bicycle' 'bear' 'airplane']
 ['bird' 'dog' 'bottle' 'cat' 'boat' 'truck' 'oven' 'knife' 'keyboard'
  'elephant' 'clock' 'chair' 'car' 'bicycle' 'bear' 'airplane']
 ['bird' 'dog' 'truck' 'oven' 'knife' 'keyboard' 'elephant' 'clock'
  'chair' 'cat' 'car' 'bottle' 'bicycle' 'bear' 'airplane' 'boat']
 ['bird' 'clock' 'car' 'truck' 'oven' 'knife' 'keyboard' 'elephant'
  'chair' 'boat' 'bicycle' 'bear' 'airplane' 'cat' 'bottle' 'dog']]",bird,NaN,bird7.png
xception,1,14,NaN,"[['bird' 'clock' 'car' 'truck' 'oven' 'knife' 'keyboard' 'elephant'
  'chair' 'boat' 'bicycle' 'bear' 'airplane' 'dog' 'cat' 'bottle']
 ['bottle' 'bird' 'truck' 'oven' 'knife' 'keyboard' 'elephant' 'clock'
  'chair' 'cat' 'car' 'boat' 'bicycle' 'bear' 'airplane' 'dog']
 ['bird' 'dog' 'clock' 'car' 'truck' 'oven' 'knife' 'keyboard' 'elephant'
  'chair' 'boat' 'bicycle' 'bear' 'airplane' 'cat' 'bottle']
 ['bird' 'dog' 'clock' 'car' 'truck' 'oven' 'knife' 'keyboard' 'elephant'
  'chair' 'boat' 'bicycle' 'bear' 'airplane' 'cat' 'bottle']
 ['bird' 'truck' 'oven' 'knife' 'keyboard' 'elephant' 'dog' 'clock'
  'chair' 'cat' 'car' 'bottle' 'boat' 'bicycle' 'bear' 'airplane']
 ['dog' 'bottle' 'cat' 'boat' 'bird' 'truck' 'oven' 'knife' 'keyboard'
  'elephant' 'clock' 'chair' 'car' 'bicycle' 'bear' 'airplane']
 ['bird' 'dog' 'clock' 'car' 'truck' 'oven' 'knife' 'keyboard' 'elephant'
  'chair' 'boat' 'bicycle' 'bear' 'airplane' 'cat' 'bottle']
 ['bird' 'dog' 'boat' 'truck' 'oven' 'knife' 'keyboard' 'elephant'
  'clock' 'chair' 'cat' 'car' 'bottle' 'bicycle' 'bear' 'airplane']
 ['bird' 'truck' 'oven' 'knife' 'keyboard' 'elephant' 'clock' 'chair'
  'cat' 'car' 'boat' 'bicycle' 'bear' 'airplane' 'dog' 'bottle']
 ['bird' 'dog' 'clock' 'car' 'truck' 'oven' 'knife' 'keyboard' 'elephant'
  'chair' 'boat' 'bicycle' 'bear' 'airplane' 'cat' 'bottle']
 ['bird' 'truck' 'oven' 'knife' 'keyboard' 'elephant' 'clock' 'chair'
  'cat' 'car' 'boat' 'bicycle' 'bear' 'airplane' 'bottle' 'dog']
 ['bird' 'boat' 'truck' 'oven' 'knife' 'keyboard' 'elephant' 'clock'
  'chair' 'cat' 'car' 'bottle' 'bicycle' 'bear' 'airplane' 'dog']
 ['bird' 'clock' 'car' 'truck' 'oven' 'knife' 'keyboard' 'elephant'
  'chair' 'boat' 'bicycle' 'bear' 'airplane' 'cat' 'bottle' 'dog']
 ['bird' 'truck' 'oven' 'knife' 'keyboard' 'elephant' 'clock' 'chair'
  'car' 'bicycle' 'bear' 'airplane' 'cat' 'boat' 'bottle' 'dog']
 ['bird' 'dog' 'cat' 'bottle' 'truck' 'oven' 'knife' 'keyboard'
  'elephant' 'chair' 'boat' 'bicycle' 'bear' 'airplane' 'clock' 'car']
 ['bird' 'truck' 'oven' 'knife' 'keyboard' 'elephant' 'dog' 'clock'
  'chair' 'car' 'bicycle' 'bear' 'airplane' 'cat' 'boat' 'bottle']
 ['bird' 'dog' 'clock' 'car' 'truck' 'oven' 'knife' 'keyboard' 'elephant'
  'chair' 'boat' 'bicycle' 'bear' 'airplane' 'cat' 'bottle']
 ['bird' 'dog' 'truck' 'oven' 'knife' 'keyboard' 'elephant' 'clock'
  'chair' 'cat' 'car' 'bottle' 'bicycle' 'bear' 'airplane' 'boat']
 ['bird' 'clock' 'car' 'truck' 'oven' 'knife' 'keyboard' 'elephant'
  'chair' 'boat' 'bicycle' 'bear' 'airplane' 'cat' 'bottle' 'dog']
 ['bird' 'clock' 'car' 'truck' 'oven' 'knife' 'keyboard' 'elephant'
  'chair' 'boat' 'bicycle' 'bear' 'airplane' 'dog' 'cat' 'bottle']
 ['bird' 'cat' 'bottle' 'truck' 'oven' 'knife' 'keyboard' 'elephant'
  'chair' 'boat' 'bicycle' 'bear' 'airplane' 'dog' 'clock' 'car']
 ['bird' 'truck' 'oven' 'knife' 'keyboard' 'elephant' 'clock' 'chair'
  'cat' 'car' 'bottle' 'boat' 'bicycle' 'bear' 'airplane' 'dog']
 ['bird' 'bottle' 'truck' 'oven' 'knife' 'keyboard' 'elephant' 'dog'
  'clock' 'chair' 'cat' 'car' 'boat' 'bicycle' 'bear' 'airplane']
 ['clock' 'car' 'truck' 'oven' 'knife' 'keyboard' 'elephant' 'chair'
  'boat' 'bicycle' 'bear' 'airplane' 'dog' 'cat' 'bottle' 'bird']
 ['cat' 'bottle' 'bird' 'truck' 'oven' 'knife' 'keyboard' 'elephant'
  'chair' 'boat' 'bicycle' 'bear' 'airplane' 'dog' 'clock' 'car']
 ['bird' 'dog' 'boat' 'truck' 'oven' 'knife' 'keyboard' 'elephant'
  'clock' 'chair' 'cat' 'car' 'bottle' 'bicycle' 'bear' 'airplane']
 ['bird' 'truck' 'oven' 'knife' 'keyboard' 'elephant' 'clock' 'chair'
  'cat' 'car' 'boat' 'bicycle' 'bear' 'airplane' 'bottle' 'dog']
 ['dog' 'bottle' 'truck' 'oven' 'knife' 'keyboard' 'elephant' 'clock'
  'chair' 'cat' 'car' 'boat' 'bird' 'bicycle' 'bear' 'airplane']
 ['bird' 'truck' 'oven' 'knife' 'keyboard' 'elephant' 'clock' 'chair'
  'car' 'bicycle' 'bear' 'airplane' 'cat' 'boat' 'bottle' 'dog']
 ['bird' 'truck' 'oven' 'knife' 'keyboard' 'elephant' 'clock' 'chair'
  'cat' 'car' 'bottle' 'bicycle' 'bear' 'airplane' 'boat' 'dog']
 ['bird' 'truck' 'oven' 'knife' 'keyboard' 'elephant' 'dog' 'clock'
  'chair' 'cat' 'car' 'bottle' 'boat' 'bicycle' 'bear' 'airplane']
 ['cat' 'bottle' 'bird' 'truck' 'oven' 'knife' 'keyboard' 'elephant'
  'chair' 'boat' 'bicycle' 'bear' 'airplane' 'clock' 'car' 'dog']]",bird,NaN,bird8.png
xception,1,15,NaN,"[['truck' 'oven' 'knife' 'keyboard' 'elephant' 'dog' 'clock' 'chair'
  'cat' 'car' 'bottle' 'boat' 'bird' 'bicycle' 'bear' 'airplane']
 ['truck' 'oven' 'knife' 'keyboard' 'elephant' 'dog' 'clock' 'chair'
  'cat' 'car' 'bottle' 'boat' 'bird' 'bicycle' 'bear' 'airplane']
 ['truck' 'oven' 'knife' 'keyboard' 'elephant' 'dog' 'clock' 'chair'
  'cat' 'car' 'bottle' 'boat' 'bird' 'bicycle' 'bear' 'airplane']
 ['truck' 'oven' 'knife' 'keyboard' 'elephant' 'dog' 'clock' 'chair'
  'cat' 'car' 'bottle' 'boat' 'bird' 'bicycle' 'bear' 'airplane']
 ['truck' 'oven' 'knife' 'keyboard' 'elephant' 'dog' 'clock' 'chair'
  'cat' 'car' 'bottle' 'boat' 'bird' 'bicycle' 'bear' 'airplane']
 ['truck' 'oven' 'knife' 'keyboard' 'elephant' 'dog' 'clock' 'chair'
  'cat' 'car' 'bottle' 'boat' 'bird' 'bicycle' 'bear' 'airplane']
 ['truck' 'oven' 'knife' 'keyboard' 'elephant' 'dog' 'clock' 'chair'
  'cat' 'car' 'bottle' 'boat' 'bird' 'bicycle' 'bear' 'airplane']
 ['truck' 'oven' 'knife' 'keyboard' 'elephant' 'dog' 'clock' 'chair'
  'cat' 'car' 'bottle' 'boat' 'bird' 'bicycle' 'bear' 'airplane']
 ['truck' 'oven' 'knife' 'keyboard' 'elephant' 'dog' 'clock' 'chair'
  'cat' 'car' 'bottle' 'boat' 'bird' 'bicycle' 'bear' 'airplane']
 ['truck' 'oven' 'knife' 'keyboard' 'elephant' 'dog' 'clock' 'chair'
  'cat' 'car' 'bottle' 'boat' 'bird' 'bicycle' 'bear' 'airplane']
 ['truck' 'oven' 'knife' 'keyboard' 'elephant' 'dog' 'clock' 'chair'
  'cat' 'car' 'bottle' 'boat' 'bird' 'bicycle' 'bear' 'airplane']
 ['truck' 'oven' 'knife' 'keyboard' 'elephant' 'dog' 'clock' 'chair'
  'cat' 'car' 'bottle' 'boat' 'bird' 'bicycle' 'bear' 'airplane']
 ['truck' 'oven' 'knife' 'keyboard' 'elephant' 'dog' 'clock' 'chair'
  'cat' 'car' 'bottle' 'boat' 'bird' 'bicycle' 'bear' 'airplane']
 ['truck' 'oven' 'knife' 'keyboard' 'elephant' 'dog' 'clock' 'chair'
  'cat' 'car' 'bottle' 'boat' 'bird' 'bicycle' 'bear' 'airplane']
 ['truck' 'oven' 'knife' 'keyboard' 'elephant' 'dog' 'clock' 'chair'
  'cat' 'car' 'bottle' 'boat' 'bird' 'bicycle' 'bear' 'airplane']
 ['truck' 'oven' 'knife' 'keyboard' 'elephant' 'dog' 'clock' 'chair'
  'cat' 'car' 'bottle' 'boat' 'bird' 'bicycle' 'bear' 'airplane']
 ['truck' 'oven' 'knife' 'keyboard' 'elephant' 'dog' 'clock' 'chair'
  'cat' 'car' 'bottle' 'boat' 'bird' 'bicycle' 'bear' 'airplane']
 ['truck' 'oven' 'knife' 'keyboard' 'elephant' 'dog' 'clock' 'chair'
  'cat' 'car' 'bottle' 'boat' 'bird' 'bicycle' 'bear' 'airplane']
 ['truck' 'oven' 'knife' 'keyboard' 'elephant' 'dog' 'clock' 'chair'
  'cat' 'car' 'bottle' 'boat' 'bird' 'bicycle' 'bear' 'airplane']
 ['truck' 'oven' 'knife' 'keyboard' 'elephant' 'dog' 'clock' 'chair'
  'cat' 'car' 'bottle' 'boat' 'bird' 'bicycle' 'bear' 'airplane']
 ['truck' 'oven' 'knife' 'keyboard' 'elephant' 'dog' 'clock' 'chair'
  'cat' 'car' 'bottle' 'boat' 'bird' 'bicycle' 'bear' 'airplane']
 ['truck' 'oven' 'knife' 'keyboard' 'elephant' 'dog' 'clock' 'chair'
  'cat' 'car' 'bottle' 'boat' 'bird' 'bicycle' 'bear' 'airplane']
 ['truck' 'oven' 'knife' 'keyboard' 'elephant' 'dog' 'clock' 'chair'
  'cat' 'car' 'bottle' 'boat' 'bird' 'bicycle' 'bear' 'airplane']
 ['truck' 'oven' 'knife' 'keyboard' 'elephant' 'dog' 'clock' 'chair'
  'cat' 'car' 'bottle' 'boat' 'bird' 'bicycle' 'bear' 'airplane']
 ['truck' 'oven' 'knife' 'keyboard' 'elephant' 'dog' 'clock' 'chair'
  'cat' 'car' 'bottle' 'boat' 'bird' 'bicycle' 'bear' 'airplane']
 ['truck' 'oven' 'knife' 'keyboard' 'elephant' 'dog' 'clock' 'chair'
  'cat' 'car' 'bottle' 'boat' 'bird' 'bicycle' 'bear' 'airplane']
 ['truck' 'oven' 'knife' 'keyboard' 'elephant' 'dog' 'clock' 'chair'
  'cat' 'car' 'bottle' 'boat' 'bird' 'bicycle' 'bear' 'airplane']
 ['truck' 'oven' 'knife' 'keyboard' 'elephant' 'dog' 'clock' 'chair'
  'cat' 'car' 'bottle' 'boat' 'bird' 'bicycle' 'bear' 'airplane']
 ['truck' 'oven' 'knife' 'keyboard' 'elephant' 'dog' 'clock' 'chair'
  'cat' 'car' 'bottle' 'boat' 'bird' 'bicycle' 'bear' 'airplane']
 ['truck' 'oven' 'knife' 'keyboard' 'elephant' 'dog' 'clock' 'chair'
  'cat' 'car' 'bottle' 'boat' 'bird' 'bicycle' 'bear' 'airplane']
 ['truck' 'oven' 'knife' 'keyboard' 'elephant' 'dog' 'clock' 'chair'
  'cat' 'car' 'bottle' 'boat' 'bird' 'bicycle' 'bear' 'airplane']
 ['truck' 'oven' 'knife' 'keyboard' 'elephant' 'dog' 'clock' 'chair'
  'cat' 'car' 'bottle' 'boat' 'bird' 'bicycle' 'bear' 'airplane']]",car,NaN,car4.png
xception,1,16,NaN,"[['dog' 'truck' 'oven' 'knife' 'keyboard' 'elephant' 'clock' 'chair'
  'cat' 'car' 'boat' 'bird' 'bicycle' 'bear' 'airplane' 'bottle']
 ['truck' 'oven' 'knife' 'keyboard' 'elephant' 'clock' 'chair' 'cat'
  'car' 'bottle' 'boat' 'bird' 'bicycle' 'bear' 'airplane' 'dog']
 ['dog' 'truck' 'oven' 'knife' 'keyboard' 'elephant' 'clock' 'chair'
  'cat' 'car' 'bottle' 'boat' 'bird' 'bicycle' 'bear' 'airplane']
 ['truck' 'oven' 'knife' 'keyboard' 'elephant' 'dog' 'clock' 'chair'
  'cat' 'car' 'bottle' 'boat' 'bird' 'bicycle' 'bear' 'airplane']
 ['dog' 'truck' 'oven' 'knife' 'keyboard' 'elephant' 'clock' 'chair'
  'cat' 'car' 'bottle' 'bicycle' 'bear' 'airplane' 'boat' 'bird']
 ['dog' 'clock' 'car' 'truck' 'oven' 'knife' 'keyboard' 'elephant'
  'chair' 'boat' 'bicycle' 'bear' 'airplane' 'cat' 'bottle' 'bird']
 ['dog' 'bottle' 'truck' 'oven' 'knife' 'keyboard' 'elephant' 'clock'
  'chair' 'cat' 'car' 'boat' 'bird' 'bicycle' 'bear' 'airplane']
 ['bottle' 'truck' 'oven' 'knife' 'keyboard' 'elephant' 'clock' 'chair'
  'cat' 'car' 'boat' 'bird' 'bicycle' 'bear' 'airplane' 'dog']
 ['cat' 'bottle' 'bird' 'truck' 'oven' 'knife' 'keyboard' 'elephant'
  'chair' 'boat' 'bicycle' 'bear' 'airplane' 'dog' 'clock' 'car']
 ['dog' 'truck' 'oven' 'knife' 'keyboard' 'elephant' 'clock' 'chair'
  'cat' 'car' 'bottle' 'bird' 'bicycle' 'bear' 'airplane' 'boat']
 ['boat' 'bird' 'truck' 'oven' 'knife' 'keyboard' 'elephant' 'clock'
  'chair' 'cat' 'car' 'bottle' 'bicycle' 'bear' 'airplane' 'dog']
 ['dog' 'boat' 'truck' 'oven' 'knife' 'keyboard' 'elephant' 'clock'
  'chair' 'cat' 'car' 'bottle' 'bird' 'bicycle' 'bear' 'airplane']
 ['dog' 'bottle' 'cat' 'boat' 'bird' 'truck' 'oven' 'knife' 'keyboard'
  'elephant' 'clock' 'chair' 'car' 'bicycle' 'bear' 'airplane']
 ['truck' 'oven' 'knife' 'keyboard' 'elephant' 'clock' 'chair' 'cat'
  'car' 'bottle' 'boat' 'bird' 'bicycle' 'bear' 'airplane' 'dog']
 ['dog' 'cat' 'bottle' 'bird' 'truck' 'oven' 'knife' 'keyboard'
  'elephant' 'chair' 'boat' 'bicycle' 'bear' 'airplane' 'clock' 'car']
 ['dog' 'truck' 'oven' 'knife' 'keyboard' 'elephant' 'clock' 'chair'
  'cat' 'car' 'bottle' 'boat' 'bird' 'bicycle' 'bear' 'airplane']
 ['dog' 'boat' 'truck' 'oven' 'knife' 'keyboard' 'elephant' 'clock'
  'chair' 'cat' 'car' 'bottle' 'bird' 'bicycle' 'bear' 'airplane']
 ['bird' 'dog' 'truck' 'oven' 'knife' 'keyboard' 'elephant' 'clock'
  'chair' 'cat' 'car' 'boat' 'bicycle' 'bear' 'airplane' 'bottle']
 ['truck' 'oven' 'knife' 'keyboard' 'elephant' 'clock' 'chair' 'car'
  'bicycle' 'bear' 'airplane' 'cat' 'boat' 'bird' 'bottle' 'dog']
 ['truck' 'oven' 'knife' 'keyboard' 'elephant' 'clock' 'chair' 'cat'
  'car' 'boat' 'bird' 'bicycle' 'bear' 'airplane' 'dog' 'bottle']
 ['dog' 'cat' 'bottle' 'bird' 'truck' 'oven' 'knife' 'keyboard'
  'elephant' 'chair' 'boat' 'bicycle' 'bear' 'airplane' 'clock' 'car']
 ['dog' 'truck' 'oven' 'knife' 'keyboard' 'elephant' 'clock' 'chair'
  'cat' 'car' 'boat' 'bird' 'bicycle' 'bear' 'airplane' 'bottle']
 ['clock' 'car' 'truck' 'oven' 'knife' 'keyboard' 'elephant' 'chair'
  'boat' 'bicycle' 'bear' 'airplane' 'cat' 'bottle' 'bird' 'dog']
 ['truck' 'oven' 'knife' 'keyboard' 'elephant' 'clock' 'chair' 'car'
  'bicycle' 'bear' 'airplane' 'cat' 'boat' 'bird' 'bottle' 'dog']
 ['truck' 'oven' 'knife' 'keyboard' 'elephant' 'dog' 'clock' 'chair'
  'cat' 'car' 'bottle' 'boat' 'bird' 'bicycle' 'bear' 'airplane']
 ['truck' 'oven' 'knife' 'keyboard' 'elephant' 'clock' 'chair' 'cat'
  'car' 'bottle' 'boat' 'bird' 'bicycle' 'bear' 'airplane' 'dog']
 ['cat' 'bottle' 'bird' 'truck' 'oven' 'knife' 'keyboard' 'elephant'
  'chair' 'boat' 'bicycle' 'bear' 'airplane' 'dog' 'clock' 'car']
 ['boat' 'truck' 'oven' 'knife' 'keyboard' 'elephant' 'dog' 'clock'
  'chair' 'cat' 'car' 'bottle' 'bird' 'bicycle' 'bear' 'airplane']
 ['truck' 'oven' 'knife' 'keyboard' 'elephant' 'dog' 'clock' 'chair'
  'cat' 'car' 'bottle' 'boat' 'bird' 'bicycle' 'bear' 'airplane']
 ['dog' 'clock' 'car' 'truck' 'oven' 'knife' 'keyboard' 'elephant'
  'chair' 'boat' 'bird' 'bicycle' 'bear' 'airplane' 'cat' 'bottle']
 ['cat' 'bottle' 'bird' 'truck' 'oven' 'knife' 'keyboard' 'elephant'
  'chair' 'boat' 'bicycle' 'bear' 'airplane' 'dog' 'clock' 'car']
 ['dog' 'bottle' 'truck' 'oven' 'knife' 'keyboard' 'elephant' 'clock'
  'chair' 'cat' 'car' 'boat' 'bird' 'bicycle' 'bear' 'airplane']]",car,NaN,car5.png
xception,1,17,NaN,"[['bird' 'truck' 'oven' 'knife' 'keyboard' 'elephant' 'clock' 'chair'
  'car' 'bicycle' 'bear' 'airplane' 'cat' 'boat' 'bottle' 'dog']
 ['bird' 'dog' 'truck' 'oven' 'knife' 'keyboard' 'elephant' 'clock'
  'chair' 'cat' 'car' 'boat' 'bicycle' 'bear' 'airplane' 'bottle']
 ['bird' 'bottle' 'dog' 'cat' 'boat' 'truck' 'oven' 'knife' 'keyboard'
  'elephant' 'clock' 'chair' 'car' 'bicycle' 'bear' 'airplane']
 ['bird' 'boat' 'truck' 'oven' 'knife' 'keyboard' 'elephant' 'dog'
  'clock' 'chair' 'cat' 'car' 'bottle' 'bicycle' 'bear' 'airplane']
 ['bird' 'dog' 'cat' 'bottle' 'truck' 'oven' 'knife' 'keyboard'
  'elephant' 'chair' 'boat' 'bicycle' 'bear' 'airplane' 'clock' 'car']
 ['bird' 'dog' 'cat' 'bottle' 'truck' 'oven' 'knife' 'keyboard'
  'elephant' 'chair' 'boat' 'bicycle' 'bear' 'airplane' 'clock' 'car']
 ['bird' 'clock' 'car' 'truck' 'oven' 'knife' 'keyboard' 'elephant'
  'chair' 'boat' 'bicycle' 'bear' 'airplane' 'cat' 'bottle' 'dog']
 ['bird' 'cat' 'bottle' 'truck' 'oven' 'knife' 'keyboard' 'elephant'
  'chair' 'boat' 'bicycle' 'bear' 'airplane' 'clock' 'car' 'dog']
 ['bird' 'cat' 'bottle' 'truck' 'oven' 'knife' 'keyboard' 'elephant'
  'dog' 'chair' 'boat' 'bicycle' 'bear' 'airplane' 'clock' 'car']
 ['bird' 'dog' 'cat' 'bottle' 'truck' 'oven' 'knife' 'keyboard'
  'elephant' 'chair' 'boat' 'bicycle' 'bear' 'airplane' 'clock' 'car']
 ['bird' 'dog' 'truck' 'oven' 'knife' 'keyboard' 'elephant' 'clock'
  'chair' 'cat' 'car' 'bottle' 'bicycle' 'bear' 'airplane' 'boat']
 ['bird' 'dog' 'bottle' 'cat' 'boat' 'truck' 'oven' 'knife' 'keyboard'
  'elephant' 'clock' 'chair' 'car' 'bicycle' 'bear' 'airplane']
 ['bird' 'bottle' 'dog' 'cat' 'boat' 'truck' 'oven' 'knife' 'keyboard'
  'elephant' 'clock' 'chair' 'car' 'bicycle' 'bear' 'airplane']
 ['bird' 'dog' 'boat' 'truck' 'oven' 'knife' 'keyboard' 'elephant'
  'clock' 'chair' 'cat' 'car' 'bottle' 'bicycle' 'bear' 'airplane']
 ['bird' 'clock' 'car' 'truck' 'oven' 'knife' 'keyboard' 'elephant'
  'chair' 'boat' 'bicycle' 'bear' 'airplane' 'dog' 'cat' 'bottle']
 ['bird' 'bottle' 'truck' 'oven' 'knife' 'keyboard' 'elephant' 'clock'
  'chair' 'cat' 'car' 'boat' 'bicycle' 'bear' 'airplane' 'dog']
 ['bird' 'truck' 'oven' 'knife' 'keyboard' 'elephant' 'clock' 'chair'
  'cat' 'car' 'bottle' 'bicycle' 'bear' 'airplane' 'boat' 'dog']
 ['bird' 'dog' 'truck' 'oven' 'knife' 'keyboard' 'elephant' 'clock'
  'chair' 'cat' 'car' 'bottle' 'bicycle' 'bear' 'airplane' 'boat']
 ['bird' 'truck' 'oven' 'knife' 'keyboard' 'elephant' 'clock' 'chair'
  'cat' 'car' 'boat' 'bicycle' 'bear' 'airplane' 'dog' 'bottle']
 ['bird' 'dog' 'truck' 'oven' 'knife' 'keyboard' 'elephant' 'clock'
  'chair' 'cat' 'car' 'bottle' 'boat' 'bicycle' 'bear' 'airplane']
 ['bird' 'boat' 'truck' 'oven' 'knife' 'keyboard' 'elephant' 'dog'
  'clock' 'chair' 'cat' 'car' 'bottle' 'bicycle' 'bear' 'airplane']
 ['bird' 'cat' 'bottle' 'truck' 'oven' 'knife' 'keyboard' 'elephant'
  'chair' 'boat' 'bicycle' 'bear' 'airplane' 'clock' 'car' 'dog']
 ['bird' 'clock' 'car' 'truck' 'oven' 'knife' 'keyboard' 'elephant'
  'chair' 'boat' 'bicycle' 'bear' 'airplane' 'dog' 'cat' 'bottle']
 ['bird' 'bottle' 'truck' 'oven' 'knife' 'keyboard' 'elephant' 'clock'
  'chair' 'cat' 'car' 'boat' 'bicycle' 'bear' 'airplane' 'dog']
 ['bird' 'dog' 'truck' 'oven' 'knife' 'keyboard' 'elephant' 'clock'
  'chair' 'cat' 'car' 'bottle' 'bicycle' 'bear' 'airplane' 'boat']
 ['bird' 'dog' 'truck' 'oven' 'knife' 'keyboard' 'elephant' 'clock'
  'chair' 'cat' 'car' 'boat' 'bicycle' 'bear' 'airplane' 'bottle']
 ['bird' 'boat' 'truck' 'oven' 'knife' 'keyboard' 'elephant' 'dog'
  'clock' 'chair' 'cat' 'car' 'bottle' 'bicycle' 'bear' 'airplane']
 ['bird' 'truck' 'oven' 'knife' 'keyboard' 'elephant' 'dog' 'clock'
  'chair' 'cat' 'car' 'boat' 'bicycle' 'bear' 'airplane' 'bottle']
 ['bird' 'clock' 'car' 'truck' 'oven' 'knife' 'keyboard' 'elephant' 'dog'
  'chair' 'boat' 'bicycle' 'bear' 'airplane' 'cat' 'bottle']
 ['dog' 'bird' 'cat' 'bottle' 'truck' 'oven' 'knife' 'keyboard'
  'elephant' 'chair' 'boat' 'bicycle' 'bear' 'airplane' 'clock' 'car']
 ['bird' 'bottle' 'truck' 'oven' 'knife' 'keyboard' 'elephant' 'dog'
  'clock' 'chair' 'cat' 'car' 'boat' 'bicycle' 'bear' 'airplane']
 ['bird' 'dog' 'clock' 'car' 'truck' 'oven' 'knife' 'keyboard' 'elephant'
  'chair' 'boat' 'bicycle' 'bear' 'airplane' 'cat' 'bottle']]",car,NaN,car6.png
xception,1,18,NaN,"[['bird' 'dog' 'truck' 'oven' 'knife' 'keyboard' 'elephant' 'clock'
  'chair' 'cat' 'car' 'bottle' 'boat' 'bicycle' 'bear' 'airplane']
 ['bird' 'dog' 'boat' 'truck' 'oven' 'knife' 'keyboard' 'elephant'
  'clock' 'chair' 'cat' 'car' 'bottle' 'bicycle' 'bear' 'airplane']
 ['bird' 'dog' 'clock' 'car' 'truck' 'oven' 'knife' 'keyboard' 'elephant'
  'chair' 'boat' 'bicycle' 'bear' 'airplane' 'cat' 'bottle']
 ['bird' 'cat' 'bottle' 'truck' 'oven' 'knife' 'keyboard' 'elephant'
  'chair' 'boat' 'bicycle' 'bear' 'airplane' 'clock' 'car' 'dog']
 ['bird' 'truck' 'oven' 'knife' 'keyboard' 'elephant' 'dog' 'clock'
  'chair' 'cat' 'car' 'boat' 'bicycle' 'bear' 'airplane' 'bottle']
 ['bird' 'dog' 'bottle' 'cat' 'boat' 'truck' 'oven' 'knife' 'keyboard'
  'elephant' 'clock' 'chair' 'car' 'bicycle' 'bear' 'airplane']
 ['bird' 'boat' 'truck' 'oven' 'knife' 'keyboard' 'elephant' 'clock'
  'chair' 'cat' 'car' 'bottle' 'bicycle' 'bear' 'airplane' 'dog']
 ['bird' 'truck' 'oven' 'knife' 'keyboard' 'elephant' 'clock' 'chair'
  'cat' 'car' 'bottle' 'bicycle' 'bear' 'airplane' 'boat' 'dog']
 ['bird' 'dog' 'bottle' 'truck' 'oven' 'knife' 'keyboard' 'elephant'
  'clock' 'chair' 'cat' 'car' 'boat' 'bicycle' 'bear' 'airplane']
 ['bird' 'dog' 'boat' 'truck' 'oven' 'knife' 'keyboard' 'elephant'
  'clock' 'chair' 'cat' 'car' 'bottle' 'bicycle' 'bear' 'airplane']
 ['bird' 'dog' 'clock' 'car' 'truck' 'oven' 'knife' 'keyboard' 'elephant'
  'chair' 'boat' 'bicycle' 'bear' 'airplane' 'cat' 'bottle']
 ['bird' 'truck' 'oven' 'knife' 'keyboard' 'elephant' 'clock' 'chair'
  'cat' 'car' 'boat' 'bicycle' 'bear' 'airplane' 'bottle' 'dog']
 ['bird' 'truck' 'oven' 'knife' 'keyboard' 'elephant' 'clock' 'chair'
  'cat' 'car' 'bottle' 'boat' 'bicycle' 'bear' 'airplane' 'dog']
 ['bird' 'dog' 'truck' 'oven' 'knife' 'keyboard' 'elephant' 'clock'
  'chair' 'cat' 'car' 'boat' 'bicycle' 'bear' 'airplane' 'bottle']
 ['bird' 'bottle' 'dog' 'cat' 'boat' 'truck' 'oven' 'knife' 'keyboard'
  'elephant' 'clock' 'chair' 'car' 'bicycle' 'bear' 'airplane']
 ['bird' 'bottle' 'truck' 'oven' 'knife' 'keyboard' 'elephant' 'clock'
  'chair' 'cat' 'car' 'boat' 'bicycle' 'bear' 'airplane' 'dog']
 ['bird' 'truck' 'oven' 'knife' 'keyboard' 'elephant' 'dog' 'clock'
  'chair' 'cat' 'car' 'bottle' 'boat' 'bicycle' 'bear' 'airplane']
 ['bird' 'dog' 'truck' 'oven' 'knife' 'keyboard' 'elephant' 'clock'
  'chair' 'cat' 'car' 'bottle' 'boat' 'bicycle' 'bear' 'airplane']
 ['bird' 'truck' 'oven' 'knife' 'keyboard' 'elephant' 'clock' 'chair'
  'cat' 'car' 'bottle' 'bicycle' 'bear' 'airplane' 'boat' 'dog']
 ['bird' 'bottle' 'truck' 'oven' 'knife' 'keyboard' 'elephant' 'clock'
  'chair' 'cat' 'car' 'boat' 'bicycle' 'bear' 'airplane' 'dog']
 ['bird' 'bottle' 'truck' 'oven' 'knife' 'keyboard' 'elephant' 'clock'
  'chair' 'cat' 'car' 'boat' 'bicycle' 'bear' 'airplane' 'dog']
 ['bird' 'dog' 'boat' 'truck' 'oven' 'knife' 'keyboard' 'elephant'
  'clock' 'chair' 'cat' 'car' 'bottle' 'bicycle' 'bear' 'airplane']
 ['bird' 'dog' 'clock' 'car' 'truck' 'oven' 'knife' 'keyboard' 'elephant'
  'chair' 'boat' 'bicycle' 'bear' 'airplane' 'cat' 'bottle']
 ['bird' 'bottle' 'truck' 'oven' 'knife' 'keyboard' 'elephant' 'clock'
  'chair' 'cat' 'car' 'boat' 'bicycle' 'bear' 'airplane' 'dog']
 ['bird' 'dog' 'clock' 'car' 'truck' 'oven' 'knife' 'keyboard' 'elephant'
  'chair' 'boat' 'bicycle' 'bear' 'airplane' 'cat' 'bottle']
 ['bird' 'dog' 'cat' 'bottle' 'truck' 'oven' 'knife' 'keyboard'
  'elephant' 'chair' 'boat' 'bicycle' 'bear' 'airplane' 'clock' 'car']
 ['bird' 'dog' 'boat' 'truck' 'oven' 'knife' 'keyboard' 'elephant'
  'clock' 'chair' 'cat' 'car' 'bottle' 'bicycle' 'bear' 'airplane']
 ['bird' 'dog' 'truck' 'oven' 'knife' 'keyboard' 'elephant' 'clock'
  'chair' 'cat' 'car' 'bottle' 'boat' 'bicycle' 'bear' 'airplane']
 ['bird' 'dog' 'truck' 'oven' 'knife' 'keyboard' 'elephant' 'clock'
  'chair' 'cat' 'car' 'bottle' 'bicycle' 'bear' 'airplane' 'boat']
 ['bird' 'dog' 'truck' 'oven' 'knife' 'keyboard' 'elephant' 'clock'
  'chair' 'cat' 'car' 'bottle' 'boat' 'bicycle' 'bear' 'airplane']
 ['bird' 'dog' 'bottle' 'cat' 'boat' 'truck' 'oven' 'knife' 'keyboard'
  'elephant' 'clock' 'chair' 'car' 'bicycle' 'bear' 'airplane']
 ['bird' 'dog' 'clock' 'car' 'truck' 'oven' 'knife' 'keyboard' 'elephant'
  'chair' 'boat' 'bicycle' 'bear' 'airplane' 'cat' 'bottle']]",car,NaN,car7.png
xception,1,19,NaN,"[['bird' 'truck' 'oven' 'knife' 'keyboard' 'elephant' 'clock' 'chair'
  'cat' 'car' 'bottle' 'bicycle' 'bear' 'airplane' 'boat' 'dog']
 ['bird' 'boat' 'truck' 'oven' 'knife' 'keyboard' 'elephant' 'clock'
  'chair' 'cat' 'car' 'bottle' 'bicycle' 'bear' 'airplane' 'dog']
 ['bird' 'dog' 'boat' 'truck' 'oven' 'knife' 'keyboard' 'elephant'
  'clock' 'chair' 'cat' 'car' 'bottle' 'bicycle' 'bear' 'airplane']
 ['bird' 'truck' 'oven' 'knife' 'keyboard' 'elephant' 'clock' 'chair'
  'car' 'bicycle' 'bear' 'airplane' 'cat' 'boat' 'bottle' 'dog']
 ['bird' 'clock' 'car' 'truck' 'oven' 'knife' 'keyboard' 'elephant'
  'chair' 'boat' 'bicycle' 'bear' 'airplane' 'dog' 'cat' 'bottle']
 ['bird' 'bottle' 'truck' 'oven' 'knife' 'keyboard' 'elephant' 'clock'
  'chair' 'cat' 'car' 'boat' 'bicycle' 'bear' 'airplane' 'dog']
 ['bird' 'dog' 'bottle' 'cat' 'boat' 'truck' 'oven' 'knife' 'keyboard'
  'elephant' 'clock' 'chair' 'car' 'bicycle' 'bear' 'airplane']
 ['bird' 'truck' 'oven' 'knife' 'keyboard' 'elephant' 'dog' 'clock'
  'chair' 'cat' 'car' 'bottle' 'boat' 'bicycle' 'bear' 'airplane']
 ['bird' 'truck' 'oven' 'knife' 'keyboard' 'elephant' 'clock' 'chair'
  'cat' 'car' 'bottle' 'boat' 'bicycle' 'bear' 'airplane' 'dog']
 ['bird' 'clock' 'car' 'truck' 'oven' 'knife' 'keyboard' 'elephant'
  'chair' 'boat' 'bicycle' 'bear' 'airplane' 'dog' 'cat' 'bottle']
 ['bird' 'clock' 'car' 'truck' 'oven' 'knife' 'keyboard' 'elephant' 'dog'
  'chair' 'boat' 'bicycle' 'bear' 'airplane' 'cat' 'bottle']
 ['bird' 'dog' 'boat' 'truck' 'oven' 'knife' 'keyboard' 'elephant'
  'clock' 'chair' 'cat' 'car' 'bottle' 'bicycle' 'bear' 'airplane']
 ['bird' 'bottle' 'truck' 'oven' 'knife' 'keyboard' 'elephant' 'dog'
  'clock' 'chair' 'cat' 'car' 'boat' 'bicycle' 'bear' 'airplane']
 ['bird' 'truck' 'oven' 'knife' 'keyboard' 'elephant' 'dog' 'clock'
  'chair' 'cat' 'car' 'boat' 'bicycle' 'bear' 'airplane' 'bottle']
 ['bird' 'boat' 'truck' 'oven' 'knife' 'keyboard' 'elephant' 'clock'
  'chair' 'cat' 'car' 'bottle' 'bicycle' 'bear' 'airplane' 'dog']
 ['bird' 'dog' 'clock' 'car' 'truck' 'oven' 'knife' 'keyboard' 'elephant'
  'chair' 'boat' 'bicycle' 'bear' 'airplane' 'cat' 'bottle']
 ['bird' 'truck' 'oven' 'knife' 'keyboard' 'elephant' 'clock' 'chair'
  'cat' 'car' 'bottle' 'boat' 'bicycle' 'bear' 'airplane' 'dog']
 ['bird' 'truck' 'oven' 'knife' 'keyboard' 'elephant' 'clock' 'chair'
  'cat' 'car' 'boat' 'bicycle' 'bear' 'airplane' 'dog' 'bottle']
 ['bird' 'dog' 'truck' 'oven' 'knife' 'keyboard' 'elephant' 'clock'
  'chair' 'cat' 'car' 'boat' 'bicycle' 'bear' 'airplane' 'bottle']
 ['bird' 'dog' 'truck' 'oven' 'knife' 'keyboard' 'elephant' 'clock'
  'chair' 'cat' 'car' 'bottle' 'boat' 'bicycle' 'bear' 'airplane']
 ['bird' 'dog' 'boat' 'truck' 'oven' 'knife' 'keyboard' 'elephant'
  'clock' 'chair' 'cat' 'car' 'bottle' 'bicycle' 'bear' 'airplane']
 ['bird' 'clock' 'car' 'truck' 'oven' 'knife' 'keyboard' 'elephant'
  'chair' 'boat' 'bicycle' 'bear' 'airplane' 'cat' 'bottle' 'dog']
 ['bird' 'clock' 'car' 'truck' 'oven' 'knife' 'keyboard' 'elephant'
  'chair' 'boat' 'bicycle' 'bear' 'airplane' 'dog' 'cat' 'bottle']
 ['bird' 'clock' 'car' 'truck' 'oven' 'knife' 'keyboard' 'elephant'
  'chair' 'boat' 'bicycle' 'bear' 'airplane' 'cat' 'bottle' 'dog']
 ['bird' 'bottle' 'truck' 'oven' 'knife' 'keyboard' 'elephant' 'clock'
  'chair' 'cat' 'car' 'boat' 'bicycle' 'bear' 'airplane' 'dog']
 ['bird' 'dog' 'truck' 'oven' 'knife' 'keyboard' 'elephant' 'clock'
  'chair' 'cat' 'car' 'boat' 'bicycle' 'bear' 'airplane' 'bottle']
 ['bird' 'dog' 'truck' 'oven' 'knife' 'keyboard' 'elephant' 'clock'
  'chair' 'cat' 'car' 'boat' 'bicycle' 'bear' 'airplane' 'bottle']
 ['bird' 'dog' 'boat' 'truck' 'oven' 'knife' 'keyboard' 'elephant'
  'clock' 'chair' 'cat' 'car' 'bottle' 'bicycle' 'bear' 'airplane']
 ['bird' 'dog' 'cat' 'bottle' 'truck' 'oven' 'knife' 'keyboard'
  'elephant' 'chair' 'boat' 'bicycle' 'bear' 'airplane' 'clock' 'car']
 ['bird' 'dog' 'clock' 'car' 'truck' 'oven' 'knife' 'keyboard' 'elephant'
  'chair' 'boat' 'bicycle' 'bear' 'airplane' 'cat' 'bottle']
 ['bird' 'dog' 'bottle' 'cat' 'boat' 'truck' 'oven' 'knife' 'keyboard'
  'elephant' 'clock' 'chair' 'car' 'bicycle' 'bear' 'airplane']
 ['bird' 'truck' 'oven' 'knife' 'keyboard' 'elephant' 'dog' 'clock'
  'chair' 'car' 'bicycle' 'bear' 'airplane' 'cat' 'boat' 'bottle']]",car,NaN,car8.png
xception,1,20,NaN,"[['bird' 'dog' 'bottle' 'truck' 'oven' 'knife' 'keyboard' 'elephant'
  'clock' 'chair' 'cat' 'car' 'boat' 'bicycle' 'bear' 'airplane']
 ['bird' 'bottle' 'cat' 'boat' 'truck' 'oven' 'knife' 'keyboard'
  'elephant' 'dog' 'clock' 'chair' 'car' 'bicycle' 'bear' 'airplane']
 ['bird' 'truck' 'oven' 'knife' 'keyboard' 'elephant' 'clock' 'chair'
  'car' 'bicycle' 'bear' 'airplane' 'cat' 'boat' 'bottle' 'dog']
 ['bird' 'clock' 'car' 'truck' 'oven' 'knife' 'keyboard' 'elephant'
  'chair' 'boat' 'bicycle' 'bear' 'airplane' 'cat' 'bottle' 'dog']
 ['bird' 'dog' 'truck' 'oven' 'knife' 'keyboard' 'elephant' 'clock'
  'chair' 'cat' 'car' 'bottle' 'boat' 'bicycle' 'bear' 'airplane']
 ['bird' 'dog' 'bottle' 'truck' 'oven' 'knife' 'keyboard' 'elephant'
  'clock' 'chair' 'cat' 'car' 'boat' 'bicycle' 'bear' 'airplane']
 ['bird' 'dog' 'truck' 'oven' 'knife' 'keyboard' 'elephant' 'clock'
  'chair' 'cat' 'car' 'bottle' 'boat' 'bicycle' 'bear' 'airplane']
 ['bird' 'dog' 'boat' 'truck' 'oven' 'knife' 'keyboard' 'elephant'
  'clock' 'chair' 'cat' 'car' 'bottle' 'bicycle' 'bear' 'airplane']
 ['bird' 'dog' 'boat' 'truck' 'oven' 'knife' 'keyboard' 'elephant'
  'clock' 'chair' 'cat' 'car' 'bottle' 'bicycle' 'bear' 'airplane']
 ['bird' 'truck' 'oven' 'knife' 'keyboard' 'elephant' 'dog' 'clock'
  'chair' 'cat' 'car' 'bottle' 'boat' 'bicycle' 'bear' 'airplane']
 ['bird' 'dog' 'truck' 'oven' 'knife' 'keyboard' 'elephant' 'clock'
  'chair' 'cat' 'car' 'bottle' 'bicycle' 'bear' 'airplane' 'boat']
 ['bird' 'dog' 'cat' 'bottle' 'truck' 'oven' 'knife' 'keyboard'
  'elephant' 'chair' 'boat' 'bicycle' 'bear' 'airplane' 'clock' 'car']
 ['bird' 'clock' 'car' 'truck' 'oven' 'knife' 'keyboard' 'elephant'
  'chair' 'boat' 'bicycle' 'bear' 'airplane' 'cat' 'bottle' 'dog']
 ['bird' 'cat' 'bottle' 'truck' 'oven' 'knife' 'keyboard' 'elephant'
  'chair' 'boat' 'bicycle' 'bear' 'airplane' 'dog' 'clock' 'car']
 ['bird' 'dog' 'clock' 'car' 'truck' 'oven' 'knife' 'keyboard' 'elephant'
  'chair' 'boat' 'bicycle' 'bear' 'airplane' 'cat' 'bottle']
 ['bird' 'truck' 'oven' 'knife' 'keyboard' 'elephant' 'clock' 'chair'
  'cat' 'car' 'bottle' 'boat' 'bicycle' 'bear' 'airplane' 'dog']
 ['bird' 'boat' 'truck' 'oven' 'knife' 'keyboard' 'elephant' 'clock'
  'chair' 'cat' 'car' 'bottle' 'bicycle' 'bear' 'airplane' 'dog']
 ['bird' 'dog' 'boat' 'truck' 'oven' 'knife' 'keyboard' 'elephant'
  'clock' 'chair' 'cat' 'car' 'bottle' 'bicycle' 'bear' 'airplane']
 ['bird' 'truck' 'oven' 'knife' 'keyboard' 'elephant' 'clock' 'chair'
  'cat' 'car' 'bottle' 'boat' 'bicycle' 'bear' 'airplane' 'dog']
 ['bird' 'dog' 'boat' 'truck' 'oven' 'knife' 'keyboard' 'elephant'
  'clock' 'chair' 'cat' 'car' 'bottle' 'bicycle' 'bear' 'airplane']
 ['bird' 'truck' 'oven' 'knife' 'keyboard' 'elephant' 'clock' 'chair'
  'car' 'bicycle' 'bear' 'airplane' 'dog' 'cat' 'boat' 'bottle']
 ['bird' 'cat' 'bottle' 'truck' 'oven' 'knife' 'keyboard' 'elephant'
  'dog' 'chair' 'boat' 'bicycle' 'bear' 'airplane' 'clock' 'car']
 ['bird' 'truck' 'oven' 'knife' 'keyboard' 'elephant' 'clock' 'chair'
  'cat' 'car' 'bottle' 'boat' 'bicycle' 'bear' 'airplane' 'dog']
 ['bird' 'truck' 'oven' 'knife' 'keyboard' 'elephant' 'clock' 'chair'
  'cat' 'car' 'boat' 'bicycle' 'bear' 'airplane' 'dog' 'bottle']
 ['bird' 'dog' 'truck' 'oven' 'knife' 'keyboard' 'elephant' 'clock'
  'chair' 'cat' 'car' 'bottle' 'bicycle' 'bear' 'airplane' 'boat']
 ['bird' 'clock' 'car' 'truck' 'oven' 'knife' 'keyboard' 'elephant' 'dog'
  'chair' 'boat' 'bicycle' 'bear' 'airplane' 'cat' 'bottle']
 ['bird' 'bottle' 'dog' 'cat' 'boat' 'truck' 'oven' 'knife' 'keyboard'
  'elephant' 'clock' 'chair' 'car' 'bicycle' 'bear' 'airplane']
 ['bird' 'bottle' 'truck' 'oven' 'knife' 'keyboard' 'elephant' 'dog'
  'clock' 'chair' 'cat' 'car' 'boat' 'bicycle' 'bear' 'airplane']
 ['bird' 'dog' 'boat' 'truck' 'oven' 'knife' 'keyboard' 'elephant'
  'clock' 'chair' 'cat' 'car' 'bottle' 'bicycle' 'bear' 'airplane']
 ['bird' 'dog' 'clock' 'car' 'truck' 'oven' 'knife' 'keyboard' 'elephant'
  'chair' 'boat' 'bicycle' 'bear' 'airplane' 'cat' 'bottle']
 ['bird' 'dog' 'clock' 'car' 'truck' 'oven' 'knife' 'keyboard' 'elephant'
  'chair' 'boat' 'bicycle' 'bear' 'airplane' 'cat' 'bottle']
 ['bird' 'truck' 'oven' 'knife' 'keyboard' 'elephant' 'dog' 'clock'
  'chair' 'cat' 'car' 'bottle' 'boat' 'bicycle' 'bear' 'airplane']]",car,NaN,car9.png
xception,1,21,NaN,"[['bird' 'truck' 'oven' 'knife' 'keyboard' 'elephant' 'clock' 'chair'
  'cat' 'car' 'boat' 'bicycle' 'bear' 'airplane' 'dog' 'bottle']
 ['bird' 'dog' 'boat' 'truck' 'oven' 'knife' 'keyboard' 'elephant'
  'clock' 'chair' 'cat' 'car' 'bottle' 'bicycle' 'bear' 'airplane']
 ['dog' 'truck' 'oven' 'knife' 'keyboard' 'elephant' 'clock' 'chair'
  'cat' 'car' 'boat' 'bird' 'bicycle' 'bear' 'airplane' 'bottle']
 ['bird' 'truck' 'oven' 'knife' 'keyboard' 'elephant' 'clock' 'chair'
  'cat' 'car' 'boat' 'bicycle' 'bear' 'airplane' 'bottle' 'dog']
 ['dog' 'truck' 'oven' 'knife' 'keyboard' 'elephant' 'clock' 'chair'
  'cat' 'car' 'bottle' 'boat' 'bird' 'bicycle' 'bear' 'airplane']
 ['bird' 'dog' 'bottle' 'truck' 'oven' 'knife' 'keyboard' 'elephant'
  'clock' 'chair' 'cat' 'car' 'boat' 'bicycle' 'bear' 'airplane']
 ['bird' 'truck' 'oven' 'knife' 'keyboard' 'elephant' 'clock' 'chair'
  'cat' 'car' 'bottle' 'boat' 'bicycle' 'bear' 'airplane' 'dog']
 ['bird' 'dog' 'boat' 'truck' 'oven' 'knife' 'keyboard' 'elephant'
  'clock' 'chair' 'cat' 'car' 'bottle' 'bicycle' 'bear' 'airplane']
 ['bird' 'clock' 'car' 'truck' 'oven' 'knife' 'keyboard' 'elephant' 'dog'
  'chair' 'boat' 'bicycle' 'bear' 'airplane' 'cat' 'bottle']
 ['bird' 'dog' 'clock' 'car' 'truck' 'oven' 'knife' 'keyboard' 'elephant'
  'chair' 'boat' 'bicycle' 'bear' 'airplane' 'cat' 'bottle']
 ['truck' 'oven' 'knife' 'keyboard' 'elephant' 'clock' 'chair' 'cat'
  'car' 'bottle' 'boat' 'bird' 'bicycle' 'bear' 'airplane' 'dog']
 ['bird' 'truck' 'oven' 'knife' 'keyboard' 'elephant' 'clock' 'chair'
  'car' 'bicycle' 'bear' 'airplane' 'cat' 'boat' 'bottle' 'dog']
 ['bird' 'dog' 'boat' 'truck' 'oven' 'knife' 'keyboard' 'elephant'
  'clock' 'chair' 'cat' 'car' 'bottle' 'bicycle' 'bear' 'airplane']
 ['bird' 'dog' 'boat' 'truck' 'oven' 'knife' 'keyboard' 'elephant'
  'clock' 'chair' 'cat' 'car' 'bottle' 'bicycle' 'bear' 'airplane']
 ['bird' 'bottle' 'truck' 'oven' 'knife' 'keyboard' 'elephant' 'clock'
  'chair' 'cat' 'car' 'boat' 'bicycle' 'bear' 'airplane' 'dog']
 ['cat' 'bottle' 'bird' 'truck' 'oven' 'knife' 'keyboard' 'elephant'
  'chair' 'boat' 'bicycle' 'bear' 'airplane' 'clock' 'car' 'dog']
 ['bird' 'truck' 'oven' 'knife' 'keyboard' 'elephant' 'clock' 'chair'
  'cat' 'car' 'bottle' 'boat' 'bicycle' 'bear' 'airplane' 'dog']
 ['bird' 'truck' 'oven' 'knife' 'keyboard' 'elephant' 'clock' 'chair'
  'cat' 'car' 'bottle' 'bicycle' 'bear' 'airplane' 'dog' 'boat']
 ['dog' 'bottle' 'truck' 'oven' 'knife' 'keyboard' 'elephant' 'clock'
  'chair' 'cat' 'car' 'boat' 'bird' 'bicycle' 'bear' 'airplane']
 ['bird' 'dog' 'bottle' 'cat' 'boat' 'truck' 'oven' 'knife' 'keyboard'
  'elephant' 'clock' 'chair' 'car' 'bicycle' 'bear' 'airplane']
 ['bird' 'cat' 'bottle' 'truck' 'oven' 'knife' 'keyboard' 'elephant'
  'chair' 'boat' 'bicycle' 'bear' 'airplane' 'dog' 'clock' 'car']
 ['bottle' 'dog' 'cat' 'boat' 'bird' 'truck' 'oven' 'knife' 'keyboard'
  'elephant' 'clock' 'chair' 'car' 'bicycle' 'bear' 'airplane']
 ['bird' 'boat' 'truck' 'oven' 'knife' 'keyboard' 'elephant' 'clock'
  'chair' 'cat' 'car' 'bottle' 'bicycle' 'bear' 'airplane' 'dog']
 ['bird' 'dog' 'boat' 'truck' 'oven' 'knife' 'keyboard' 'elephant'
  'clock' 'chair' 'cat' 'car' 'bottle' 'bicycle' 'bear' 'airplane']
 ['truck' 'oven' 'knife' 'keyboard' 'elephant' 'clock' 'chair' 'car'
  'bicycle' 'bear' 'airplane' 'dog' 'cat' 'boat' 'bird' 'bottle']
 ['cat' 'bottle' 'truck' 'oven' 'knife' 'keyboard' 'elephant' 'dog'
  'chair' 'boat' 'bird' 'bicycle' 'bear' 'airplane' 'clock' 'car']
 ['bird' 'cat' 'bottle' 'truck' 'oven' 'knife' 'keyboard' 'elephant'
  'dog' 'chair' 'boat' 'bicycle' 'bear' 'airplane' 'clock' 'car']
 ['bird' 'bottle' 'truck' 'oven' 'knife' 'keyboard' 'elephant' 'dog'
  'clock' 'chair' 'cat' 'car' 'boat' 'bicycle' 'bear' 'airplane']
 ['bird' 'truck' 'oven' 'knife' 'keyboard' 'elephant' 'dog' 'clock'
  'chair' 'cat' 'car' 'bottle' 'boat' 'bicycle' 'bear' 'airplane']
 ['bird' 'dog' 'boat' 'truck' 'oven' 'knife' 'keyboard' 'elephant'
  'clock' 'chair' 'cat' 'car' 'bottle' 'bicycle' 'bear' 'airplane']
 ['bird' 'dog' 'cat' 'bottle' 'truck' 'oven' 'knife' 'keyboard'
  'elephant' 'chair' 'boat' 'bicycle' 'bear' 'airplane' 'clock' 'car']
 ['bird' 'cat' 'bottle' 'truck' 'oven' 'knife' 'keyboard' 'elephant'
  'chair' 'boat' 'bicycle' 'bear' 'airplane' 'clock' 'car' 'dog']]",cat,NaN,cat1.png
xception,1,22,NaN,"[['truck' 'oven' 'knife' 'keyboard' 'elephant' 'dog' 'clock' 'chair'
  'cat' 'car' 'bottle' 'boat' 'bird' 'bicycle' 'bear' 'airplane']
 ['truck' 'oven' 'knife' 'keyboard' 'elephant' 'dog' 'clock' 'chair'
  'cat' 'car' 'bottle' 'boat' 'bird' 'bicycle' 'bear' 'airplane']
 ['truck' 'oven' 'knife' 'keyboard' 'elephant' 'dog' 'clock' 'chair'
  'cat' 'car' 'bottle' 'boat' 'bird' 'bicycle' 'bear' 'airplane']
 ['truck' 'oven' 'knife' 'keyboard' 'elephant' 'dog' 'clock' 'chair'
  'cat' 'car' 'bottle' 'boat' 'bird' 'bicycle' 'bear' 'airplane']
 ['truck' 'oven' 'knife' 'keyboard' 'elephant' 'dog' 'clock' 'chair'
  'cat' 'car' 'bottle' 'boat' 'bird' 'bicycle' 'bear' 'airplane']
 ['truck' 'oven' 'knife' 'keyboard' 'elephant' 'dog' 'clock' 'chair'
  'cat' 'car' 'bottle' 'boat' 'bird' 'bicycle' 'bear' 'airplane']
 ['truck' 'oven' 'knife' 'keyboard' 'elephant' 'dog' 'clock' 'chair'
  'cat' 'car' 'bottle' 'boat' 'bird' 'bicycle' 'bear' 'airplane']
 ['truck' 'oven' 'knife' 'keyboard' 'elephant' 'dog' 'clock' 'chair'
  'cat' 'car' 'bottle' 'boat' 'bird' 'bicycle' 'bear' 'airplane']
 ['truck' 'oven' 'knife' 'keyboard' 'elephant' 'dog' 'clock' 'chair'
  'cat' 'car' 'bottle' 'boat' 'bird' 'bicycle' 'bear' 'airplane']
 ['truck' 'oven' 'knife' 'keyboard' 'elephant' 'dog' 'clock' 'chair'
  'cat' 'car' 'bottle' 'boat' 'bird' 'bicycle' 'bear' 'airplane']
 ['truck' 'oven' 'knife' 'keyboard' 'elephant' 'dog' 'clock' 'chair'
  'cat' 'car' 'bottle' 'boat' 'bird' 'bicycle' 'bear' 'airplane']
 ['truck' 'oven' 'knife' 'keyboard' 'elephant' 'dog' 'clock' 'chair'
  'cat' 'car' 'bottle' 'boat' 'bird' 'bicycle' 'bear' 'airplane']
 ['truck' 'oven' 'knife' 'keyboard' 'elephant' 'dog' 'clock' 'chair'
  'cat' 'car' 'bottle' 'boat' 'bird' 'bicycle' 'bear' 'airplane']
 ['truck' 'oven' 'knife' 'keyboard' 'elephant' 'dog' 'clock' 'chair'
  'cat' 'car' 'bottle' 'boat' 'bird' 'bicycle' 'bear' 'airplane']
 ['truck' 'oven' 'knife' 'keyboard' 'elephant' 'dog' 'clock' 'chair'
  'cat' 'car' 'bottle' 'boat' 'bird' 'bicycle' 'bear' 'airplane']
 ['truck' 'oven' 'knife' 'keyboard' 'elephant' 'dog' 'clock' 'chair'
  'cat' 'car' 'bottle' 'boat' 'bird' 'bicycle' 'bear' 'airplane']
 ['truck' 'oven' 'knife' 'keyboard' 'elephant' 'dog' 'clock' 'chair'
  'cat' 'car' 'bottle' 'boat' 'bird' 'bicycle' 'bear' 'airplane']
 ['truck' 'oven' 'knife' 'keyboard' 'elephant' 'dog' 'clock' 'chair'
  'cat' 'car' 'bottle' 'boat' 'bird' 'bicycle' 'bear' 'airplane']
 ['truck' 'oven' 'knife' 'keyboard' 'elephant' 'dog' 'clock' 'chair'
  'cat' 'car' 'bottle' 'boat' 'bird' 'bicycle' 'bear' 'airplane']
 ['truck' 'oven' 'knife' 'keyboard' 'elephant' 'dog' 'clock' 'chair'
  'cat' 'car' 'bottle' 'boat' 'bird' 'bicycle' 'bear' 'airplane']
 ['truck' 'oven' 'knife' 'keyboard' 'elephant' 'dog' 'clock' 'chair'
  'cat' 'car' 'bottle' 'boat' 'bird' 'bicycle' 'bear' 'airplane']
 ['truck' 'oven' 'knife' 'keyboard' 'elephant' 'dog' 'clock' 'chair'
  'cat' 'car' 'bottle' 'boat' 'bird' 'bicycle' 'bear' 'airplane']
 ['truck' 'oven' 'knife' 'keyboard' 'elephant' 'dog' 'clock' 'chair'
  'cat' 'car' 'bottle' 'boat' 'bird' 'bicycle' 'bear' 'airplane']
 ['truck' 'oven' 'knife' 'keyboard' 'elephant' 'dog' 'clock' 'chair'
  'cat' 'car' 'bottle' 'boat' 'bird' 'bicycle' 'bear' 'airplane']
 ['truck' 'oven' 'knife' 'keyboard' 'elephant' 'dog' 'clock' 'chair'
  'cat' 'car' 'bottle' 'boat' 'bird' 'bicycle' 'bear' 'airplane']
 ['truck' 'oven' 'knife' 'keyboard' 'elephant' 'dog' 'clock' 'chair'
  'cat' 'car' 'bottle' 'boat' 'bird' 'bicycle' 'bear' 'airplane']
 ['truck' 'oven' 'knife' 'keyboard' 'elephant' 'dog' 'clock' 'chair'
  'cat' 'car' 'bottle' 'boat' 'bird' 'bicycle' 'bear' 'airplane']
 ['truck' 'oven' 'knife' 'keyboard' 'elephant' 'dog' 'clock' 'chair'
  'cat' 'car' 'bottle' 'boat' 'bird' 'bicycle' 'bear' 'airplane']
 ['truck' 'oven' 'knife' 'keyboard' 'elephant' 'dog' 'clock' 'chair'
  'cat' 'car' 'bottle' 'boat' 'bird' 'bicycle' 'bear' 'airplane']
 ['truck' 'oven' 'knife' 'keyboard' 'elephant' 'dog' 'clock' 'chair'
  'cat' 'car' 'bottle' 'boat' 'bird' 'bicycle' 'bear' 'airplane']
 ['truck' 'oven' 'knife' 'keyboard' 'elephant' 'dog' 'clock' 'chair'
  'cat' 'car' 'bottle' 'boat' 'bird' 'bicycle' 'bear' 'airplane']
 ['truck' 'oven' 'knife' 'keyboard' 'elephant' 'dog' 'clock' 'chair'
  'cat' 'car' 'bottle' 'boat' 'bird' 'bicycle' 'bear' 'airplane']]",clock,NaN,clock6.png
xception,1,23,NaN,"[['truck' 'oven' 'knife' 'keyboard' 'elephant' 'dog' 'clock' 'chair'
  'cat' 'car' 'bottle' 'boat' 'bird' 'bicycle' 'bear' 'airplane']
 ['dog' 'cat' 'bottle' 'truck' 'oven' 'knife' 'keyboard' 'elephant'
  'chair' 'boat' 'bird' 'bicycle' 'bear' 'airplane' 'clock' 'car']
 ['dog' 'truck' 'oven' 'knife' 'keyboard' 'elephant' 'clock' 'chair'
  'cat' 'car' 'boat' 'bicycle' 'bear' 'airplane' 'bottle' 'bird']
 ['dog' 'truck' 'oven' 'knife' 'keyboard' 'elephant' 'clock' 'chair'
  'cat' 'car' 'boat' 'bird' 'bicycle' 'bear' 'airplane' 'bottle']
 ['dog' 'clock' 'car' 'truck' 'oven' 'knife' 'keyboard' 'elephant'
  'chair' 'boat' 'bicycle' 'bear' 'airplane' 'cat' 'bottle' 'bird']
 ['truck' 'oven' 'knife' 'keyboard' 'elephant' 'clock' 'chair' 'cat'
  'car' 'bottle' 'boat' 'bird' 'bicycle' 'bear' 'airplane' 'dog']
 ['dog' 'truck' 'oven' 'knife' 'keyboard' 'elephant' 'clock' 'chair'
  'cat' 'car' 'boat' 'bicycle' 'bear' 'airplane' 'bottle' 'bird']
 ['dog' 'clock' 'car' 'truck' 'oven' 'knife' 'keyboard' 'elephant'
  'chair' 'boat' 'bird' 'bicycle' 'bear' 'airplane' 'cat' 'bottle']
 ['dog' 'boat' 'truck' 'oven' 'knife' 'keyboard' 'elephant' 'clock'
  'chair' 'cat' 'car' 'bottle' 'bird' 'bicycle' 'bear' 'airplane']
 ['dog' 'truck' 'oven' 'knife' 'keyboard' 'elephant' 'clock' 'chair'
  'cat' 'car' 'boat' 'bird' 'bicycle' 'bear' 'airplane' 'bottle']
 ['dog' 'truck' 'oven' 'knife' 'keyboard' 'elephant' 'clock' 'chair'
  'cat' 'car' 'boat' 'bird' 'bicycle' 'bear' 'airplane' 'bottle']
 ['truck' 'oven' 'knife' 'keyboard' 'elephant' 'clock' 'chair' 'car'
  'bicycle' 'bear' 'airplane' 'dog' 'cat' 'boat' 'bird' 'bottle']
 ['bottle' 'dog' 'cat' 'boat' 'bird' 'truck' 'oven' 'knife' 'keyboard'
  'elephant' 'clock' 'chair' 'car' 'bicycle' 'bear' 'airplane']
 ['boat' 'truck' 'oven' 'knife' 'keyboard' 'elephant' 'clock' 'chair'
  'cat' 'car' 'bottle' 'bird' 'bicycle' 'bear' 'airplane' 'dog']
 ['truck' 'oven' 'knife' 'keyboard' 'elephant' 'clock' 'chair' 'cat'
  'car' 'bottle' 'boat' 'bird' 'bicycle' 'bear' 'airplane' 'dog']
 ['truck' 'oven' 'knife' 'keyboard' 'elephant' 'clock' 'chair' 'cat'
  'car' 'bottle' 'bird' 'bicycle' 'bear' 'airplane' 'boat' 'dog']
 ['cat' 'bottle' 'bird' 'truck' 'oven' 'knife' 'keyboard' 'elephant'
  'chair' 'boat' 'bicycle' 'bear' 'airplane' 'clock' 'car' 'dog']
 ['bird' 'dog' 'cat' 'bottle' 'truck' 'oven' 'knife' 'keyboard'
  'elephant' 'chair' 'boat' 'bicycle' 'bear' 'airplane' 'clock' 'car']
 ['truck' 'oven' 'knife' 'keyboard' 'elephant' 'clock' 'chair' 'cat'
  'car' 'bottle' 'bird' 'bicycle' 'bear' 'airplane' 'dog' 'boat']
 ['cat' 'bottle' 'truck' 'oven' 'knife' 'keyboard' 'elephant' 'chair'
  'boat' 'bird' 'bicycle' 'bear' 'airplane' 'clock' 'car' 'dog']
 ['truck' 'oven' 'knife' 'keyboard' 'elephant' 'dog' 'clock' 'chair'
  'cat' 'car' 'bottle' 'boat' 'bird' 'bicycle' 'bear' 'airplane']
 ['truck' 'oven' 'knife' 'keyboard' 'elephant' 'clock' 'chair' 'cat'
  'car' 'bottle' 'boat' 'bird' 'bicycle' 'bear' 'airplane' 'dog']
 ['bottle' 'bird' 'truck' 'oven' 'knife' 'keyboard' 'elephant' 'dog'
  'clock' 'chair' 'cat' 'car' 'boat' 'bicycle' 'bear' 'airplane']
 ['dog' 'boat' 'truck' 'oven' 'knife' 'keyboard' 'elephant' 'clock'
  'chair' 'cat' 'car' 'bottle' 'bird' 'bicycle' 'bear' 'airplane']
 ['bird' 'clock' 'car' 'truck' 'oven' 'knife' 'keyboard' 'elephant' 'dog'
  'chair' 'boat' 'bicycle' 'bear' 'airplane' 'cat' 'bottle']
 ['dog' 'boat' 'bird' 'truck' 'oven' 'knife' 'keyboard' 'elephant'
  'clock' 'chair' 'cat' 'car' 'bottle' 'bicycle' 'bear' 'airplane']
 ['truck' 'oven' 'knife' 'keyboard' 'elephant' 'clock' 'chair' 'cat'
  'car' 'bottle' 'boat' 'bird' 'bicycle' 'bear' 'airplane' 'dog']
 ['dog' 'bottle' 'bird' 'truck' 'oven' 'knife' 'keyboard' 'elephant'
  'clock' 'chair' 'cat' 'car' 'boat' 'bicycle' 'bear' 'airplane']
 ['dog' 'truck' 'oven' 'knife' 'keyboard' 'elephant' 'clock' 'chair'
  'cat' 'car' 'boat' 'bird' 'bicycle' 'bear' 'airplane' 'bottle']
