subj,session,trial,rt,object_response,category,condition,imagename
xception,1,1,NaN,"[['truck' 'oven' 'knife' 'keyboard' 'elephant' 'dog' 'clock' 'chair'
  'cat' 'car' 'bottle' 'boat' 'bird' 'bicycle' 'bear' 'airplane']
 ['truck' 'oven' 'knife' 'keyboard' 'elephant' 'dog' 'clock' 'chair'
  'cat' 'car' 'bottle' 'boat' 'bird' 'bicycle' 'bear' 'airplane']
 ['truck' 'oven' 'knife' 'keyboard' 'elephant' 'dog' 'clock' 'chair'
  'cat' 'car' 'bottle' 'boat' 'bird' 'bicycle' 'bear' 'airplane']
 ['truck' 'oven' 'knife' 'keyboard' 'elephant' 'dog' 'clock' 'chair'
  'cat' 'car' 'bottle' 'boat' 'bird' 'bicycle' 'bear' 'airplane']
 ['truck' 'oven' 'knife' 'keyboard' 'elephant' 'dog' 'clock' 'chair'
  'cat' 'car' 'bottle' 'boat' 'bird' 'bicycle' 'bear' 'airplane']
 ['truck' 'oven' 'knife' 'keyboard' 'elephant' 'dog' 'clock' 'chair'
  'cat' 'car' 'bottle' 'boat' 'bird' 'bicycle' 'bear' 'airplane']
 ['truck' 'oven' 'knife' 'keyboard' 'elephant' 'dog' 'clock' 'chair'
  'cat' 'car' 'bottle' 'boat' 'bird' 'bicycle' 'bear' 'airplane']
 ['truck' 'oven' 'knife' 'keyboard' 'elephant' 'dog' 'clock' 'chair'
  'cat' 'car' 'bottle' 'boat' 'bird' 'bicycle' 'bear' 'airplane']
 ['truck' 'oven' 'knife' 'keyboard' 'elephant' 'dog' 'clock' 'chair'
  'cat' 'car' 'bottle' 'boat' 'bird' 'bicycle' 'bear' 'airplane']
 ['truck' 'oven' 'knife' 'keyboard' 'elephant' 'dog' 'clock' 'chair'
  'cat' 'car' 'bottle' 'boat' 'bird' 'bicycle' 'bear' 'airplane']
 ['truck' 'oven' 'knife' 'keyboard' 'elephant' 'dog' 'clock' 'chair'
  'cat' 'car' 'bottle' 'boat' 'bird' 'bicycle' 'bear' 'airplane']
 ['truck' 'oven' 'knife' 'keyboard' 'elephant' 'dog' 'clock' 'chair'
  'cat' 'car' 'bottle' 'boat' 'bird' 'bicycle' 'bear' 'airplane']
 ['truck' 'oven' 'knife' 'keyboard' 'elephant' 'dog' 'clock' 'chair'
  'cat' 'car' 'bottle' 'boat' 'bird' 'bicycle' 'bear' 'airplane']
 ['truck' 'oven' 'knife' 'keyboard' 'elephant' 'dog' 'clock' 'chair'
  'cat' 'car' 'bottle' 'boat' 'bird' 'bicycle' 'bear' 'airplane']
 ['truck' 'oven' 'knife' 'keyboard' 'elephant' 'dog' 'clock' 'chair'
  'cat' 'car' 'bottle' 'boat' 'bird' 'bicycle' 'bear' 'airplane']
 ['boat' 'truck' 'oven' 'knife' 'keyboard' 'elephant' 'dog' 'clock'
  'chair' 'cat' 'car' 'bottle' 'bird' 'bicycle' 'bear' 'airplane']
 ['truck' 'oven' 'knife' 'keyboard' 'elephant' 'dog' 'clock' 'chair'
  'cat' 'car' 'bottle' 'boat' 'bird' 'bicycle' 'bear' 'airplane']
 ['dog' 'bottle' 'cat' 'boat' 'bird' 'truck' 'oven' 'knife' 'keyboard'
  'elephant' 'clock' 'chair' 'car' 'bicycle' 'bear' 'airplane']
 ['truck' 'oven' 'knife' 'keyboard' 'elephant' 'dog' 'clock' 'chair'
  'cat' 'car' 'bottle' 'boat' 'bird' 'bicycle' 'bear' 'airplane']
 ['truck' 'oven' 'knife' 'keyboard' 'elephant' 'dog' 'clock' 'chair'
  'cat' 'car' 'bottle' 'boat' 'bird' 'bicycle' 'bear' 'airplane']
 ['truck' 'oven' 'knife' 'keyboard' 'elephant' 'dog' 'clock' 'chair'
  'cat' 'car' 'bottle' 'boat' 'bird' 'bicycle' 'bear' 'airplane']
 ['truck' 'oven' 'knife' 'keyboard' 'elephant' 'dog' 'clock' 'chair'
  'cat' 'car' 'bottle' 'boat' 'bird' 'bicycle' 'bear' 'airplane']
 ['truck' 'oven' 'knife' 'keyboard' 'elephant' 'dog' 'clock' 'chair'
  'cat' 'car' 'bottle' 'boat' 'bird' 'bicycle' 'bear' 'airplane']
 ['truck' 'oven' 'knife' 'keyboard' 'elephant' 'dog' 'clock' 'chair'
  'cat' 'car' 'bottle' 'boat' 'bird' 'bicycle' 'bear' 'airplane']
 ['truck' 'oven' 'knife' 'keyboard' 'elephant' 'dog' 'clock' 'chair'
  'cat' 'car' 'bottle' 'boat' 'bird' 'bicycle' 'bear' 'airplane']
 ['truck' 'oven' 'knife' 'keyboard' 'elephant' 'dog' 'clock' 'chair'
  'cat' 'car' 'bottle' 'boat' 'bird' 'bicycle' 'bear' 'airplane']
 ['truck' 'oven' 'knife' 'keyboard' 'elephant' 'dog' 'clock' 'chair'
  'cat' 'car' 'bottle' 'boat' 'bird' 'bicycle' 'bear' 'airplane']
 ['truck' 'oven' 'knife' 'keyboard' 'elephant' 'dog' 'clock' 'chair'
  'cat' 'car' 'bottle' 'boat' 'bird' 'bicycle' 'bear' 'airplane']
 ['truck' 'oven' 'knife' 'keyboard' 'elephant' 'dog' 'clock' 'chair'
  'cat' 'car' 'bottle' 'boat' 'bird' 'bicycle' 'bear' 'airplane']
 ['truck' 'oven' 'knife' 'keyboard' 'elephant' 'dog' 'clock' 'chair'
  'cat' 'car' 'bottle' 'boat' 'bird' 'bicycle' 'bear' 'airplane']
 ['truck' 'oven' 'knife' 'keyboard' 'elephant' 'dog' 'clock' 'chair'
  'cat' 'car' 'bottle' 'boat' 'bird' 'bicycle' 'bear' 'airplane']
 ['truck' 'oven' 'knife' 'keyboard' 'elephant' 'dog' 'clock' 'chair'
  'cat' 'car' 'bottle' 'boat' 'bird' 'bicycle' 'bear' 'airplane']]",airplane,NaN,airplane1-bicycle2.png
xception,1,2,NaN,"[['bird' 'dog' 'cat' 'bottle' 'truck' 'oven' 'knife' 'keyboard'
  'elephant' 'chair' 'boat' 'bicycle' 'bear' 'airplane' 'clock' 'car']
 ['bird' 'bottle' 'truck' 'oven' 'knife' 'keyboard' 'elephant' 'dog'
  'clock' 'chair' 'cat' 'car' 'boat' 'bicycle' 'bear' 'airplane']
 ['bird' 'truck' 'oven' 'knife' 'keyboard' 'elephant' 'clock' 'chair'
  'cat' 'car' 'bottle' 'boat' 'bicycle' 'bear' 'airplane' 'dog']
 ['bird' 'bottle' 'truck' 'oven' 'knife' 'keyboard' 'elephant' 'dog'
  'clock' 'chair' 'cat' 'car' 'boat' 'bicycle' 'bear' 'airplane']
 ['bird' 'truck' 'oven' 'knife' 'keyboard' 'elephant' 'clock' 'chair'
  'cat' 'car' 'bottle' 'bicycle' 'bear' 'airplane' 'boat' 'dog']
 ['truck' 'oven' 'knife' 'keyboard' 'elephant' 'clock' 'chair' 'cat'
  'car' 'bottle' 'bird' 'bicycle' 'bear' 'airplane' 'boat' 'dog']
 ['bird' 'truck' 'oven' 'knife' 'keyboard' 'elephant' 'clock' 'chair'
  'cat' 'car' 'bottle' 'boat' 'bicycle' 'bear' 'airplane' 'dog']
 ['bird' 'boat' 'truck' 'oven' 'knife' 'keyboard' 'elephant' 'clock'
  'chair' 'cat' 'car' 'bottle' 'bicycle' 'bear' 'airplane' 'dog']
 ['bird' 'truck' 'oven' 'knife' 'keyboard' 'elephant' 'clock' 'chair'
  'cat' 'car' 'bottle' 'bicycle' 'bear' 'airplane' 'dog' 'boat']
 ['bird' 'dog' 'clock' 'car' 'truck' 'oven' 'knife' 'keyboard' 'elephant'
  'chair' 'boat' 'bicycle' 'bear' 'airplane' 'cat' 'bottle']
 ['dog' 'clock' 'car' 'truck' 'oven' 'knife' 'keyboard' 'elephant'
  'chair' 'boat' 'bicycle' 'bear' 'airplane' 'cat' 'bottle' 'bird']
 ['bird' 'dog' 'bottle' 'truck' 'oven' 'knife' 'keyboard' 'elephant'
  'clock' 'chair' 'cat' 'car' 'boat' 'bicycle' 'bear' 'airplane']
 ['bird' 'dog' 'bottle' 'truck' 'oven' 'knife' 'keyboard' 'elephant'
  'clock' 'chair' 'cat' 'car' 'boat' 'bicycle' 'bear' 'airplane']
 ['dog' 'bottle' 'cat' 'boat' 'bird' 'truck' 'oven' 'knife' 'keyboard'
  'elephant' 'clock' 'chair' 'car' 'bicycle' 'bear' 'airplane']
 ['bird' 'boat' 'truck' 'oven' 'knife' 'keyboard' 'elephant' 'dog'
  'clock' 'chair' 'cat' 'car' 'bottle' 'bicycle' 'bear' 'airplane']
 ['bird' 'truck' 'oven' 'knife' 'keyboard' 'elephant' 'clock' 'chair'
  'cat' 'car' 'boat' 'bicycle' 'bear' 'airplane' 'bottle' 'dog']
 ['dog' 'truck' 'oven' 'knife' 'keyboard' 'elephant' 'clock' 'chair'
  'cat' 'car' 'bottle' 'bicycle' 'bear' 'airplane' 'boat' 'bird']
 ['bird' 'truck' 'oven' 'knife' 'keyboard' 'elephant' 'dog' 'clock'
  'chair' 'cat' 'car' 'boat' 'bicycle' 'bear' 'airplane' 'bottle']
 ['bird' 'dog' 'bottle' 'truck' 'oven' 'knife' 'keyboard' 'elephant'
  'clock' 'chair' 'cat' 'car' 'boat' 'bicycle' 'bear' 'airplane']
 ['bird' 'bottle' 'truck' 'oven' 'knife' 'keyboard' 'elephant' 'clock'
  'chair' 'cat' 'car' 'boat' 'bicycle' 'bear' 'airplane' 'dog']
 ['dog' 'boat' 'bird' 'truck' 'oven' 'knife' 'keyboard' 'elephant'
  'clock' 'chair' 'cat' 'car' 'bottle' 'bicycle' 'bear' 'airplane']
 ['bird' 'dog' 'clock' 'car' 'truck' 'oven' 'knife' 'keyboard' 'elephant'
  'chair' 'boat' 'bicycle' 'bear' 'airplane' 'cat' 'bottle']
 ['bird' 'dog' 'cat' 'bottle' 'truck' 'oven' 'knife' 'keyboard'
  'elephant' 'chair' 'boat' 'bicycle' 'bear' 'airplane' 'clock' 'car']
 ['bird' 'truck' 'oven' 'knife' 'keyboard' 'elephant' 'clock' 'chair'
  'cat' 'car' 'bottle' 'bicycle' 'bear' 'airplane' 'boat' 'dog']
 ['bird' 'boat' 'truck' 'oven' 'knife' 'keyboard' 'elephant' 'dog'
  'clock' 'chair' 'cat' 'car' 'bottle' 'bicycle' 'bear' 'airplane']
 ['bird' 'dog' 'cat' 'bottle' 'truck' 'oven' 'knife' 'keyboard'
  'elephant' 'chair' 'boat' 'bicycle' 'bear' 'airplane' 'clock' 'car']
 ['bird' 'cat' 'bottle' 'truck' 'oven' 'knife' 'keyboard' 'elephant'
  'chair' 'boat' 'bicycle' 'bear' 'airplane' 'dog' 'clock' 'car']
 ['bird' 'dog' 'truck' 'oven' 'knife' 'keyboard' 'elephant' 'clock'
  'chair' 'cat' 'car' 'bottle' 'bicycle' 'bear' 'airplane' 'boat']
 ['truck' 'oven' 'knife' 'keyboard' 'elephant' 'dog' 'clock' 'chair'
  'cat' 'car' 'bottle' 'bicycle' 'bear' 'airplane' 'boat' 'bird']
 ['bird' 'dog' 'truck' 'oven' 'knife' 'keyboard' 'elephant' 'clock'
  'chair' 'cat' 'car' 'bottle' 'boat' 'bicycle' 'bear' 'airplane']
 ['truck' 'oven' 'knife' 'keyboard' 'elephant' 'dog' 'clock' 'chair'
  'cat' 'car' 'boat' 'bicycle' 'bear' 'airplane' 'bottle' 'bird']
 ['bird' 'truck' 'oven' 'knife' 'keyboard' 'elephant' 'clock' 'chair'
  'car' 'bicycle' 'bear' 'airplane' 'cat' 'boat' 'bottle' 'dog']]",airplane,NaN,airplane1-chair2.png
xception,1,3,NaN,"[['bird' 'truck' 'oven' 'knife' 'keyboard' 'elephant' 'dog' 'clock'
  'chair' 'cat' 'car' 'bottle' 'boat' 'bicycle' 'bear' 'airplane']
 ['bird' 'boat' 'truck' 'oven' 'knife' 'keyboard' 'elephant' 'dog'
  'clock' 'chair' 'cat' 'car' 'bottle' 'bicycle' 'bear' 'airplane']
 ['bird' 'cat' 'bottle' 'truck' 'oven' 'knife' 'keyboard' 'elephant'
  'chair' 'boat' 'bicycle' 'bear' 'airplane' 'dog' 'clock' 'car']
 ['bird' 'cat' 'bottle' 'truck' 'oven' 'knife' 'keyboard' 'elephant'
  'chair' 'boat' 'bicycle' 'bear' 'airplane' 'clock' 'car' 'dog']
 ['bird' 'dog' 'truck' 'oven' 'knife' 'keyboard' 'elephant' 'clock'
  'chair' 'cat' 'car' 'bottle' 'boat' 'bicycle' 'bear' 'airplane']
 ['bird' 'dog' 'clock' 'car' 'truck' 'oven' 'knife' 'keyboard' 'elephant'
  'chair' 'boat' 'bicycle' 'bear' 'airplane' 'cat' 'bottle']
 ['bird' 'dog' 'truck' 'oven' 'knife' 'keyboard' 'elephant' 'clock'
  'chair' 'cat' 'car' 'bottle' 'bicycle' 'bear' 'airplane' 'boat']
 ['bird' 'dog' 'cat' 'bottle' 'truck' 'oven' 'knife' 'keyboard'
  'elephant' 'chair' 'boat' 'bicycle' 'bear' 'airplane' 'clock' 'car']
 ['bird' 'cat' 'bottle' 'truck' 'oven' 'knife' 'keyboard' 'elephant'
  'chair' 'boat' 'bicycle' 'bear' 'airplane' 'dog' 'clock' 'car']
 ['bird' 'boat' 'truck' 'oven' 'knife' 'keyboard' 'elephant' 'clock'
  'chair' 'cat' 'car' 'bottle' 'bicycle' 'bear' 'airplane' 'dog']
 ['bird' 'truck' 'oven' 'knife' 'keyboard' 'elephant' 'clock' 'chair'
  'cat' 'car' 'boat' 'bicycle' 'bear' 'airplane' 'dog' 'bottle']
 ['bird' 'bottle' 'truck' 'oven' 'knife' 'keyboard' 'elephant' 'clock'
  'chair' 'cat' 'car' 'boat' 'bicycle' 'bear' 'airplane' 'dog']
 ['bird' 'clock' 'car' 'truck' 'oven' 'knife' 'keyboard' 'elephant'
  'chair' 'boat' 'bicycle' 'bear' 'airplane' 'cat' 'bottle' 'dog']
 ['bird' 'bottle' 'truck' 'oven' 'knife' 'keyboard' 'elephant' 'clock'
  'chair' 'cat' 'car' 'boat' 'bicycle' 'bear' 'airplane' 'dog']
 ['bird' 'cat' 'bottle' 'truck' 'oven' 'knife' 'keyboard' 'elephant'
  'chair' 'boat' 'bicycle' 'bear' 'airplane' 'dog' 'clock' 'car']
 ['bird' 'dog' 'bottle' 'truck' 'oven' 'knife' 'keyboard' 'elephant'
  'clock' 'chair' 'cat' 'car' 'boat' 'bicycle' 'bear' 'airplane']
 ['bird' 'dog' 'boat' 'truck' 'oven' 'knife' 'keyboard' 'elephant'
  'clock' 'chair' 'cat' 'car' 'bottle' 'bicycle' 'bear' 'airplane']
 ['bird' 'cat' 'bottle' 'truck' 'oven' 'knife' 'keyboard' 'elephant'
  'chair' 'boat' 'bicycle' 'bear' 'airplane' 'clock' 'car' 'dog']
 ['bird' 'truck' 'oven' 'knife' 'keyboard' 'elephant' 'clock' 'chair'
  'cat' 'car' 'bottle' 'bicycle' 'bear' 'airplane' 'boat' 'dog']
 ['bird' 'dog' 'truck' 'oven' 'knife' 'keyboard' 'elephant' 'clock'
  'chair' 'cat' 'car' 'boat' 'bicycle' 'bear' 'airplane' 'bottle']
 ['bird' 'dog' 'boat' 'truck' 'oven' 'knife' 'keyboard' 'elephant'
  'clock' 'chair' 'cat' 'car' 'bottle' 'bicycle' 'bear' 'airplane']
 ['bird' 'truck' 'oven' 'knife' 'keyboard' 'elephant' 'dog' 'clock'
  'chair' 'cat' 'car' 'boat' 'bicycle' 'bear' 'airplane' 'bottle']
 ['bird' 'dog' 'bottle' 'cat' 'boat' 'truck' 'oven' 'knife' 'keyboard'
  'elephant' 'clock' 'chair' 'car' 'bicycle' 'bear' 'airplane']
 ['bird' 'dog' 'truck' 'oven' 'knife' 'keyboard' 'elephant' 'clock'
  'chair' 'cat' 'car' 'boat' 'bicycle' 'bear' 'airplane' 'bottle']
 ['bird' 'dog' 'bottle' 'truck' 'oven' 'knife' 'keyboard' 'elephant'
  'clock' 'chair' 'cat' 'car' 'boat' 'bicycle' 'bear' 'airplane']
 ['bird' 'truck' 'oven' 'knife' 'keyboard' 'elephant' 'clock' 'chair'
  'cat' 'car' 'bottle' 'bicycle' 'bear' 'airplane' 'boat' 'dog']
 ['bird' 'truck' 'oven' 'knife' 'keyboard' 'elephant' 'dog' 'clock'
  'chair' 'cat' 'car' 'bottle' 'boat' 'bicycle' 'bear' 'airplane']
 ['bird' 'truck' 'oven' 'knife' 'keyboard' 'elephant' 'clock' 'chair'
  'cat' 'car' 'bottle' 'bicycle' 'bear' 'airplane' 'boat' 'dog']
 ['bird' 'cat' 'bottle' 'truck' 'oven' 'knife' 'keyboard' 'elephant'
  'chair' 'boat' 'bicycle' 'bear' 'airplane' 'clock' 'car' 'dog']
 ['bird' 'dog' 'truck' 'oven' 'knife' 'keyboard' 'elephant' 'clock'
  'chair' 'cat' 'car' 'boat' 'bicycle' 'bear' 'airplane' 'bottle']
 ['bird' 'dog' 'bottle' 'truck' 'oven' 'knife' 'keyboard' 'elephant'
  'clock' 'chair' 'cat' 'car' 'boat' 'bicycle' 'bear' 'airplane']
 ['bird' 'truck' 'oven' 'knife' 'keyboard' 'elephant' 'clock' 'chair'
  'cat' 'car' 'boat' 'bicycle' 'bear' 'airplane' 'dog' 'bottle']]",airplane,NaN,airplane1-clock1.png
xception,1,4,NaN,"[['bird' 'bottle' 'truck' 'oven' 'knife' 'keyboard' 'elephant' 'clock'
  'chair' 'cat' 'car' 'boat' 'bicycle' 'bear' 'airplane' 'dog']
 ['bird' 'dog' 'truck' 'oven' 'knife' 'keyboard' 'elephant' 'clock'
  'chair' 'cat' 'car' 'boat' 'bicycle' 'bear' 'airplane' 'bottle']
 ['bird' 'cat' 'bottle' 'truck' 'oven' 'knife' 'keyboard' 'elephant'
  'chair' 'boat' 'bicycle' 'bear' 'airplane' 'clock' 'car' 'dog']
 ['bird' 'truck' 'oven' 'knife' 'keyboard' 'elephant' 'clock' 'chair'
  'cat' 'car' 'bottle' 'bicycle' 'bear' 'airplane' 'boat' 'dog']
 ['bird' 'dog' 'truck' 'oven' 'knife' 'keyboard' 'elephant' 'clock'
  'chair' 'cat' 'car' 'boat' 'bicycle' 'bear' 'airplane' 'bottle']
 ['bird' 'truck' 'oven' 'knife' 'keyboard' 'elephant' 'clock' 'chair'
  'cat' 'car' 'boat' 'bicycle' 'bear' 'airplane' 'bottle' 'dog']
 ['bird' 'truck' 'oven' 'knife' 'keyboard' 'elephant' 'clock' 'chair'
  'car' 'bicycle' 'bear' 'airplane' 'dog' 'cat' 'boat' 'bottle']
 ['bird' 'dog' 'boat' 'truck' 'oven' 'knife' 'keyboard' 'elephant'
  'clock' 'chair' 'cat' 'car' 'bottle' 'bicycle' 'bear' 'airplane']
 ['bird' 'cat' 'bottle' 'truck' 'oven' 'knife' 'keyboard' 'elephant'
  'chair' 'boat' 'bicycle' 'bear' 'airplane' 'dog' 'clock' 'car']
 ['bird' 'truck' 'oven' 'knife' 'keyboard' 'elephant' 'clock' 'chair'
  'cat' 'car' 'boat' 'bicycle' 'bear' 'airplane' 'bottle' 'dog']
 ['bird' 'clock' 'car' 'truck' 'oven' 'knife' 'keyboard' 'elephant'
  'chair' 'boat' 'bicycle' 'bear' 'airplane' 'cat' 'bottle' 'dog']
 ['bird' 'cat' 'bottle' 'truck' 'oven' 'knife' 'keyboard' 'elephant'
  'chair' 'boat' 'bicycle' 'bear' 'airplane' 'clock' 'car' 'dog']
 ['bird' 'dog' 'boat' 'truck' 'oven' 'knife' 'keyboard' 'elephant'
  'clock' 'chair' 'cat' 'car' 'bottle' 'bicycle' 'bear' 'airplane']
 ['bird' 'truck' 'oven' 'knife' 'keyboard' 'elephant' 'clock' 'chair'
  'cat' 'car' 'bottle' 'boat' 'bicycle' 'bear' 'airplane' 'dog']
 ['bird' 'truck' 'oven' 'knife' 'keyboard' 'elephant' 'dog' 'clock'
  'chair' 'car' 'bicycle' 'bear' 'airplane' 'cat' 'boat' 'bottle']
 ['bird' 'dog' 'truck' 'oven' 'knife' 'keyboard' 'elephant' 'clock'
  'chair' 'cat' 'car' 'boat' 'bicycle' 'bear' 'airplane' 'bottle']
 ['bird' 'dog' 'truck' 'oven' 'knife' 'keyboard' 'elephant' 'clock'
  'chair' 'cat' 'car' 'bottle' 'boat' 'bicycle' 'bear' 'airplane']
 ['bird' 'truck' 'oven' 'knife' 'keyboard' 'elephant' 'clock' 'chair'
  'cat' 'car' 'boat' 'bicycle' 'bear' 'airplane' 'bottle' 'dog']
 ['bird' 'dog' 'truck' 'oven' 'knife' 'keyboard' 'elephant' 'clock'
  'chair' 'cat' 'car' 'boat' 'bicycle' 'bear' 'airplane' 'bottle']
 ['bird' 'dog' 'boat' 'truck' 'oven' 'knife' 'keyboard' 'elephant'
  'clock' 'chair' 'cat' 'car' 'bottle' 'bicycle' 'bear' 'airplane']
 ['bird' 'clock' 'car' 'truck' 'oven' 'knife' 'keyboard' 'elephant'
  'chair' 'boat' 'bicycle' 'bear' 'airplane' 'dog' 'cat' 'bottle']
 ['bird' 'dog' 'clock' 'car' 'truck' 'oven' 'knife' 'keyboard' 'elephant'
  'chair' 'boat' 'bicycle' 'bear' 'airplane' 'cat' 'bottle']
 ['bird' 'dog' 'bottle' 'truck' 'oven' 'knife' 'keyboard' 'elephant'
  'clock' 'chair' 'cat' 'car' 'boat' 'bicycle' 'bear' 'airplane']
 ['bird' 'truck' 'oven' 'knife' 'keyboard' 'elephant' 'clock' 'chair'
  'car' 'bicycle' 'bear' 'airplane' 'cat' 'boat' 'bottle' 'dog']
 ['bird' 'bottle' 'truck' 'oven' 'knife' 'keyboard' 'elephant' 'clock'
  'chair' 'cat' 'car' 'boat' 'bicycle' 'bear' 'airplane' 'dog']
 ['bird' 'dog' 'bottle' 'cat' 'boat' 'truck' 'oven' 'knife' 'keyboard'
  'elephant' 'clock' 'chair' 'car' 'bicycle' 'bear' 'airplane']
 ['bird' 'dog' 'bottle' 'cat' 'boat' 'truck' 'oven' 'knife' 'keyboard'
  'elephant' 'clock' 'chair' 'car' 'bicycle' 'bear' 'airplane']
 ['bird' 'bottle' 'cat' 'boat' 'truck' 'oven' 'knife' 'keyboard'
  'elephant' 'dog' 'clock' 'chair' 'car' 'bicycle' 'bear' 'airplane']
 ['bird' 'clock' 'car' 'truck' 'oven' 'knife' 'keyboard' 'elephant'
  'chair' 'boat' 'bicycle' 'bear' 'airplane' 'cat' 'bottle' 'dog']
 ['bird' 'dog' 'truck' 'oven' 'knife' 'keyboard' 'elephant' 'clock'
  'chair' 'cat' 'car' 'bottle' 'boat' 'bicycle' 'bear' 'airplane']
 ['bird' 'dog' 'truck' 'oven' 'knife' 'keyboard' 'elephant' 'clock'
  'chair' 'cat' 'car' 'boat' 'bicycle' 'bear' 'airplane' 'bottle']
 ['bird' 'dog' 'bottle' 'truck' 'oven' 'knife' 'keyboard' 'elephant'
  'clock' 'chair' 'cat' 'car' 'boat' 'bicycle' 'bear' 'airplane']]",airplane,NaN,airplane1-elephant1.png
xception,1,5,NaN,"[['bird' 'clock' 'car' 'truck' 'oven' 'knife' 'keyboard' 'elephant'
  'chair' 'boat' 'bicycle' 'bear' 'airplane' 'cat' 'bottle' 'dog']
 ['bird' 'dog' 'clock' 'car' 'truck' 'oven' 'knife' 'keyboard' 'elephant'
  'chair' 'boat' 'bicycle' 'bear' 'airplane' 'cat' 'bottle']
 ['bird' 'clock' 'car' 'truck' 'oven' 'knife' 'keyboard' 'elephant'
  'chair' 'boat' 'bicycle' 'bear' 'airplane' 'dog' 'cat' 'bottle']
 ['bird' 'dog' 'bottle' 'cat' 'boat' 'truck' 'oven' 'knife' 'keyboard'
  'elephant' 'clock' 'chair' 'car' 'bicycle' 'bear' 'airplane']
 ['bird' 'boat' 'truck' 'oven' 'knife' 'keyboard' 'elephant' 'dog'
  'clock' 'chair' 'cat' 'car' 'bottle' 'bicycle' 'bear' 'airplane']
 ['bird' 'cat' 'bottle' 'truck' 'oven' 'knife' 'keyboard' 'elephant'
  'dog' 'chair' 'boat' 'bicycle' 'bear' 'airplane' 'clock' 'car']
 ['bird' 'truck' 'oven' 'knife' 'keyboard' 'elephant' 'clock' 'chair'
  'cat' 'car' 'bottle' 'bicycle' 'bear' 'airplane' 'boat' 'dog']
 ['bird' 'dog' 'truck' 'oven' 'knife' 'keyboard' 'elephant' 'clock'
  'chair' 'cat' 'car' 'boat' 'bicycle' 'bear' 'airplane' 'bottle']
 ['bird' 'truck' 'oven' 'knife' 'keyboard' 'elephant' 'clock' 'chair'
  'cat' 'car' 'boat' 'bicycle' 'bear' 'airplane' 'dog' 'bottle']
 ['bird' 'truck' 'oven' 'knife' 'keyboard' 'elephant' 'clock' 'chair'
  'cat' 'car' 'bottle' 'bicycle' 'bear' 'airplane' 'boat' 'dog']
 ['bird' 'truck' 'oven' 'knife' 'keyboard' 'elephant' 'clock' 'chair'
  'cat' 'car' 'boat' 'bicycle' 'bear' 'airplane' 'bottle' 'dog']
 ['bird' 'boat' 'truck' 'oven' 'knife' 'keyboard' 'elephant' 'clock'
  'chair' 'cat' 'car' 'bottle' 'bicycle' 'bear' 'airplane' 'dog']
 ['bird' 'truck' 'oven' 'knife' 'keyboard' 'elephant' 'clock' 'chair'
  'cat' 'car' 'bottle' 'bicycle' 'bear' 'airplane' 'boat' 'dog']
 ['bird' 'dog' 'truck' 'oven' 'knife' 'keyboard' 'elephant' 'clock'
  'chair' 'cat' 'car' 'bottle' 'boat' 'bicycle' 'bear' 'airplane']
 ['bird' 'dog' 'bottle' 'cat' 'boat' 'truck' 'oven' 'knife' 'keyboard'
  'elephant' 'clock' 'chair' 'car' 'bicycle' 'bear' 'airplane']
 ['bird' 'clock' 'car' 'truck' 'oven' 'knife' 'keyboard' 'elephant'
  'chair' 'boat' 'bicycle' 'bear' 'airplane' 'cat' 'bottle' 'dog']
 ['bird' 'truck' 'oven' 'knife' 'keyboard' 'elephant' 'clock' 'chair'
  'car' 'bicycle' 'bear' 'airplane' 'dog' 'cat' 'boat' 'bottle']
 ['bird' 'bottle' 'dog' 'cat' 'boat' 'truck' 'oven' 'knife' 'keyboard'
  'elephant' 'clock' 'chair' 'car' 'bicycle' 'bear' 'airplane']
 ['bird' 'truck' 'oven' 'knife' 'keyboard' 'elephant' 'clock' 'chair'
  'cat' 'car' 'bottle' 'boat' 'bicycle' 'bear' 'airplane' 'dog']
 ['bird' 'cat' 'bottle' 'truck' 'oven' 'knife' 'keyboard' 'elephant'
  'chair' 'boat' 'bicycle' 'bear' 'airplane' 'dog' 'clock' 'car']
 ['bird' 'truck' 'oven' 'knife' 'keyboard' 'elephant' 'clock' 'chair'
  'cat' 'car' 'boat' 'bicycle' 'bear' 'airplane' 'dog' 'bottle']
 ['bird' 'dog' 'bottle' 'cat' 'boat' 'truck' 'oven' 'knife' 'keyboard'
  'elephant' 'clock' 'chair' 'car' 'bicycle' 'bear' 'airplane']
 ['bird' 'boat' 'truck' 'oven' 'knife' 'keyboard' 'elephant' 'dog'
  'clock' 'chair' 'cat' 'car' 'bottle' 'bicycle' 'bear' 'airplane']
 ['bird' 'dog' 'truck' 'oven' 'knife' 'keyboard' 'elephant' 'clock'
  'chair' 'cat' 'car' 'boat' 'bicycle' 'bear' 'airplane' 'bottle']
 ['bird' 'truck' 'oven' 'knife' 'keyboard' 'elephant' 'clock' 'chair'
  'car' 'bicycle' 'bear' 'airplane' 'dog' 'cat' 'boat' 'bottle']
 ['bird' 'dog' 'bottle' 'cat' 'boat' 'truck' 'oven' 'knife' 'keyboard'
  'elephant' 'clock' 'chair' 'car' 'bicycle' 'bear' 'airplane']
 ['bird' 'boat' 'truck' 'oven' 'knife' 'keyboard' 'elephant' 'dog'
  'clock' 'chair' 'cat' 'car' 'bottle' 'bicycle' 'bear' 'airplane']
 ['bird' 'truck' 'oven' 'knife' 'keyboard' 'elephant' 'dog' 'clock'
  'chair' 'cat' 'car' 'bottle' 'boat' 'bicycle' 'bear' 'airplane']
 ['bird' 'dog' 'truck' 'oven' 'knife' 'keyboard' 'elephant' 'clock'
  'chair' 'cat' 'car' 'bottle' 'boat' 'bicycle' 'bear' 'airplane']
 ['bird' 'bottle' 'truck' 'oven' 'knife' 'keyboard' 'elephant' 'dog'
  'clock' 'chair' 'cat' 'car' 'boat' 'bicycle' 'bear' 'airplane']
 ['bird' 'clock' 'car' 'truck' 'oven' 'knife' 'keyboard' 'elephant'
  'chair' 'boat' 'bicycle' 'bear' 'airplane' 'cat' 'bottle' 'dog']
 ['bird' 'truck' 'oven' 'knife' 'keyboard' 'elephant' 'dog' 'clock'
  'chair' 'cat' 'car' 'boat' 'bicycle' 'bear' 'airplane' 'bottle']]",airplane,NaN,airplane10-airplane1.png
xception,1,6,NaN,"[['bird' 'truck' 'oven' 'knife' 'keyboard' 'elephant' 'clock' 'chair'
  'cat' 'car' 'bottle' 'boat' 'bicycle' 'bear' 'airplane' 'dog']
 ['bird' 'truck' 'oven' 'knife' 'keyboard' 'elephant' 'clock' 'chair'
  'cat' 'car' 'bottle' 'boat' 'bicycle' 'bear' 'airplane' 'dog']
 ['bird' 'cat' 'bottle' 'truck' 'oven' 'knife' 'keyboard' 'elephant'
  'chair' 'boat' 'bicycle' 'bear' 'airplane' 'clock' 'car' 'dog']
 ['bird' 'dog' 'boat' 'truck' 'oven' 'knife' 'keyboard' 'elephant'
  'clock' 'chair' 'cat' 'car' 'bottle' 'bicycle' 'bear' 'airplane']
 ['bird' 'dog' 'boat' 'truck' 'oven' 'knife' 'keyboard' 'elephant'
  'clock' 'chair' 'cat' 'car' 'bottle' 'bicycle' 'bear' 'airplane']
 ['bird' 'dog' 'cat' 'bottle' 'truck' 'oven' 'knife' 'keyboard'
  'elephant' 'chair' 'boat' 'bicycle' 'bear' 'airplane' 'clock' 'car']
 ['bird' 'dog' 'truck' 'oven' 'knife' 'keyboard' 'elephant' 'clock'
  'chair' 'cat' 'car' 'boat' 'bicycle' 'bear' 'airplane' 'bottle']
 ['bird' 'dog' 'boat' 'truck' 'oven' 'knife' 'keyboard' 'elephant'
  'clock' 'chair' 'cat' 'car' 'bottle' 'bicycle' 'bear' 'airplane']
 ['bird' 'truck' 'oven' 'knife' 'keyboard' 'elephant' 'clock' 'chair'
  'car' 'bicycle' 'bear' 'airplane' 'cat' 'boat' 'bottle' 'dog']
 ['bird' 'boat' 'truck' 'oven' 'knife' 'keyboard' 'elephant' 'dog'
  'clock' 'chair' 'cat' 'car' 'bottle' 'bicycle' 'bear' 'airplane']
 ['bird' 'dog' 'bottle' 'truck' 'oven' 'knife' 'keyboard' 'elephant'
  'clock' 'chair' 'cat' 'car' 'boat' 'bicycle' 'bear' 'airplane']
 ['bird' 'bottle' 'cat' 'boat' 'truck' 'oven' 'knife' 'keyboard'
  'elephant' 'dog' 'clock' 'chair' 'car' 'bicycle' 'bear' 'airplane']
 ['bird' 'dog' 'clock' 'car' 'truck' 'oven' 'knife' 'keyboard' 'elephant'
  'chair' 'boat' 'bicycle' 'bear' 'airplane' 'cat' 'bottle']
 ['bird' 'dog' 'boat' 'truck' 'oven' 'knife' 'keyboard' 'elephant'
  'clock' 'chair' 'cat' 'car' 'bottle' 'bicycle' 'bear' 'airplane']
 ['bird' 'truck' 'oven' 'knife' 'keyboard' 'elephant' 'clock' 'chair'
  'cat' 'car' 'boat' 'bicycle' 'bear' 'airplane' 'dog' 'bottle']
 ['bird' 'truck' 'oven' 'knife' 'keyboard' 'elephant' 'clock' 'chair'
  'cat' 'car' 'boat' 'bicycle' 'bear' 'airplane' 'dog' 'bottle']
 ['bird' 'boat' 'truck' 'oven' 'knife' 'keyboard' 'elephant' 'clock'
  'chair' 'cat' 'car' 'bottle' 'bicycle' 'bear' 'airplane' 'dog']
 ['bird' 'bottle' 'truck' 'oven' 'knife' 'keyboard' 'elephant' 'clock'
  'chair' 'cat' 'car' 'boat' 'bicycle' 'bear' 'airplane' 'dog']
 ['bird' 'dog' 'boat' 'truck' 'oven' 'knife' 'keyboard' 'elephant'
  'clock' 'chair' 'cat' 'car' 'bottle' 'bicycle' 'bear' 'airplane']
 ['bird' 'clock' 'car' 'truck' 'oven' 'knife' 'keyboard' 'elephant'
  'chair' 'boat' 'bicycle' 'bear' 'airplane' 'cat' 'bottle' 'dog']
 ['bird' 'bottle' 'truck' 'oven' 'knife' 'keyboard' 'elephant' 'clock'
  'chair' 'cat' 'car' 'boat' 'bicycle' 'bear' 'airplane' 'dog']
 ['bird' 'dog' 'boat' 'truck' 'oven' 'knife' 'keyboard' 'elephant'
  'clock' 'chair' 'cat' 'car' 'bottle' 'bicycle' 'bear' 'airplane']
 ['bird' 'cat' 'bottle' 'truck' 'oven' 'knife' 'keyboard' 'elephant'
  'chair' 'boat' 'bicycle' 'bear' 'airplane' 'clock' 'car' 'dog']
 ['bird' 'bottle' 'truck' 'oven' 'knife' 'keyboard' 'elephant' 'clock'
  'chair' 'cat' 'car' 'boat' 'bicycle' 'bear' 'airplane' 'dog']
 ['bird' 'truck' 'oven' 'knife' 'keyboard' 'elephant' 'clock' 'chair'
  'cat' 'car' 'bottle' 'bicycle' 'bear' 'airplane' 'dog' 'boat']
 ['bird' 'bottle' 'cat' 'boat' 'truck' 'oven' 'knife' 'keyboard'
  'elephant' 'dog' 'clock' 'chair' 'car' 'bicycle' 'bear' 'airplane']
 ['bird' 'dog' 'truck' 'oven' 'knife' 'keyboard' 'elephant' 'clock'
  'chair' 'cat' 'car' 'boat' 'bicycle' 'bear' 'airplane' 'bottle']
 ['bird' 'clock' 'car' 'truck' 'oven' 'knife' 'keyboard' 'elephant' 'dog'
  'chair' 'boat' 'bicycle' 'bear' 'airplane' 'cat' 'bottle']
 ['bird' 'truck' 'oven' 'knife' 'keyboard' 'elephant' 'dog' 'clock'
  'chair' 'cat' 'car' 'bottle' 'bicycle' 'bear' 'airplane' 'boat']
 ['bird' 'truck' 'oven' 'knife' 'keyboard' 'elephant' 'clock' 'chair'
  'car' 'bicycle' 'bear' 'airplane' 'cat' 'boat' 'bottle' 'dog']
 ['bird' 'bottle' 'truck' 'oven' 'knife' 'keyboard' 'elephant' 'dog'
  'clock' 'chair' 'cat' 'car' 'boat' 'bicycle' 'bear' 'airplane']
 ['bird' 'dog' 'bottle' 'cat' 'boat' 'truck' 'oven' 'knife' 'keyboard'
  'elephant' 'clock' 'chair' 'car' 'bicycle' 'bear' 'airplane']]",airplane,NaN,airplane10-bear3.png
xception,1,7,NaN,"[['bird' 'truck' 'oven' 'knife' 'keyboard' 'elephant' 'clock' 'chair'
  'cat' 'car' 'bottle' 'bicycle' 'bear' 'airplane' 'dog' 'boat']
 ['truck' 'oven' 'knife' 'keyboard' 'elephant' 'dog' 'clock' 'chair'
  'cat' 'car' 'boat' 'bicycle' 'bear' 'airplane' 'bottle' 'bird']
 ['bird' 'boat' 'truck' 'oven' 'knife' 'keyboard' 'elephant' 'dog'
  'clock' 'chair' 'cat' 'car' 'bottle' 'bicycle' 'bear' 'airplane']
 ['truck' 'oven' 'knife' 'keyboard' 'elephant' 'clock' 'chair' 'cat'
  'car' 'bottle' 'bicycle' 'bear' 'airplane' 'boat' 'bird' 'dog']
 ['bird' 'dog' 'bottle' 'cat' 'boat' 'truck' 'oven' 'knife' 'keyboard'
  'elephant' 'clock' 'chair' 'car' 'bicycle' 'bear' 'airplane']
 ['dog' 'truck' 'oven' 'knife' 'keyboard' 'elephant' 'clock' 'chair'
  'cat' 'car' 'bottle' 'boat' 'bird' 'bicycle' 'bear' 'airplane']
 ['bottle' 'truck' 'oven' 'knife' 'keyboard' 'elephant' 'clock' 'chair'
  'cat' 'car' 'boat' 'bird' 'bicycle' 'bear' 'airplane' 'dog']
 ['dog' 'bottle' 'bird' 'cat' 'boat' 'truck' 'oven' 'knife' 'keyboard'
  'elephant' 'clock' 'chair' 'car' 'bicycle' 'bear' 'airplane']
 ['clock' 'car' 'truck' 'oven' 'knife' 'keyboard' 'elephant' 'chair'
  'boat' 'bird' 'bicycle' 'bear' 'airplane' 'cat' 'bottle' 'dog']
 ['truck' 'oven' 'knife' 'keyboard' 'elephant' 'clock' 'chair' 'car'
  'bicycle' 'bear' 'airplane' 'dog' 'cat' 'boat' 'bird' 'bottle']
 ['bottle' 'bird' 'truck' 'oven' 'knife' 'keyboard' 'elephant' 'dog'
  'clock' 'chair' 'cat' 'car' 'boat' 'bicycle' 'bear' 'airplane']
 ['bird' 'truck' 'oven' 'knife' 'keyboard' 'elephant' 'clock' 'chair'
  'cat' 'car' 'bottle' 'boat' 'bicycle' 'bear' 'airplane' 'dog']
 ['bird' 'clock' 'car' 'truck' 'oven' 'knife' 'keyboard' 'elephant'
  'chair' 'boat' 'bicycle' 'bear' 'airplane' 'cat' 'bottle' 'dog']
 ['bottle' 'cat' 'boat' 'bird' 'truck' 'oven' 'knife' 'keyboard'
  'elephant' 'dog' 'clock' 'chair' 'car' 'bicycle' 'bear' 'airplane']
 ['bottle' 'bird' 'truck' 'oven' 'knife' 'keyboard' 'elephant' 'dog'
  'clock' 'chair' 'cat' 'car' 'boat' 'bicycle' 'bear' 'airplane']
 ['bird' 'truck' 'oven' 'knife' 'keyboard' 'elephant' 'clock' 'chair'
  'cat' 'car' 'bottle' 'boat' 'bicycle' 'bear' 'airplane' 'dog']
 ['bird' 'dog' 'clock' 'car' 'truck' 'oven' 'knife' 'keyboard' 'elephant'
  'chair' 'boat' 'bicycle' 'bear' 'airplane' 'cat' 'bottle']
 ['bird' 'truck' 'oven' 'knife' 'keyboard' 'elephant' 'dog' 'clock'
  'chair' 'cat' 'car' 'bottle' 'boat' 'bicycle' 'bear' 'airplane']
 ['truck' 'oven' 'knife' 'keyboard' 'elephant' 'clock' 'chair' 'cat'
  'car' 'boat' 'bird' 'bicycle' 'bear' 'airplane' 'bottle' 'dog']
 ['bird' 'clock' 'car' 'truck' 'oven' 'knife' 'keyboard' 'elephant'
  'chair' 'boat' 'bicycle' 'bear' 'airplane' 'dog' 'cat' 'bottle']
 ['bird' 'boat' 'truck' 'oven' 'knife' 'keyboard' 'elephant' 'dog'
  'clock' 'chair' 'cat' 'car' 'bottle' 'bicycle' 'bear' 'airplane']
 ['bird' 'truck' 'oven' 'knife' 'keyboard' 'elephant' 'clock' 'chair'
  'cat' 'car' 'bottle' 'bicycle' 'bear' 'airplane' 'boat' 'dog']
 ['truck' 'oven' 'knife' 'keyboard' 'elephant' 'dog' 'clock' 'chair'
  'cat' 'car' 'bottle' 'boat' 'bird' 'bicycle' 'bear' 'airplane']
 ['bird' 'truck' 'oven' 'knife' 'keyboard' 'elephant' 'clock' 'chair'
  'cat' 'car' 'bottle' 'bicycle' 'bear' 'airplane' 'boat' 'dog']
 ['bird' 'cat' 'bottle' 'truck' 'oven' 'knife' 'keyboard' 'elephant'
  'chair' 'boat' 'bicycle' 'bear' 'airplane' 'clock' 'car' 'dog']
 ['bird' 'truck' 'oven' 'knife' 'keyboard' 'elephant' 'dog' 'clock'
  'chair' 'cat' 'car' 'bottle' 'bicycle' 'bear' 'airplane' 'boat']
 ['bird' 'clock' 'car' 'truck' 'oven' 'knife' 'keyboard' 'elephant'
  'chair' 'boat' 'bicycle' 'bear' 'airplane' 'cat' 'bottle' 'dog']
 ['bird' 'dog' 'boat' 'truck' 'oven' 'knife' 'keyboard' 'elephant'
  'clock' 'chair' 'cat' 'car' 'bottle' 'bicycle' 'bear' 'airplane']
 ['dog' 'truck' 'oven' 'knife' 'keyboard' 'elephant' 'clock' 'chair'
  'cat' 'car' 'bottle' 'bird' 'bicycle' 'bear' 'airplane' 'boat']
 ['bird' 'dog' 'cat' 'bottle' 'truck' 'oven' 'knife' 'keyboard'
  'elephant' 'chair' 'boat' 'bicycle' 'bear' 'airplane' 'clock' 'car']
 ['bottle' 'bird' 'truck' 'oven' 'knife' 'keyboard' 'elephant' 'dog'
  'clock' 'chair' 'cat' 'car' 'boat' 'bicycle' 'bear' 'airplane']
 ['bird' 'truck' 'oven' 'knife' 'keyboard' 'elephant' 'dog' 'clock'
  'chair' 'cat' 'car' 'bottle' 'boat' 'bicycle' 'bear' 'airplane']]",airplane,NaN,airplane10-boat3.png
xception,1,8,NaN,"[['truck' 'oven' 'knife' 'keyboard' 'elephant' 'dog' 'clock' 'chair'
  'cat' 'car' 'bottle' 'boat' 'bird' 'bicycle' 'bear' 'airplane']
 ['truck' 'oven' 'knife' 'keyboard' 'elephant' 'dog' 'clock' 'chair'
  'cat' 'car' 'bottle' 'boat' 'bird' 'bicycle' 'bear' 'airplane']
 ['clock' 'car' 'truck' 'oven' 'knife' 'keyboard' 'elephant' 'chair'
  'boat' 'bicycle' 'bear' 'airplane' 'cat' 'bottle' 'bird' 'dog']
 ['truck' 'oven' 'knife' 'keyboard' 'elephant' 'dog' 'clock' 'chair'
  'cat' 'car' 'bottle' 'boat' 'bird' 'bicycle' 'bear' 'airplane']
 ['truck' 'oven' 'knife' 'keyboard' 'elephant' 'dog' 'clock' 'chair'
  'cat' 'car' 'bottle' 'boat' 'bird' 'bicycle' 'bear' 'airplane']
 ['truck' 'oven' 'knife' 'keyboard' 'elephant' 'dog' 'clock' 'chair'
  'cat' 'car' 'bottle' 'boat' 'bird' 'bicycle' 'bear' 'airplane']
 ['truck' 'oven' 'knife' 'keyboard' 'elephant' 'dog' 'clock' 'chair'
  'cat' 'car' 'bottle' 'boat' 'bird' 'bicycle' 'bear' 'airplane']
 ['truck' 'oven' 'knife' 'keyboard' 'elephant' 'dog' 'clock' 'chair'
  'cat' 'car' 'bottle' 'boat' 'bird' 'bicycle' 'bear' 'airplane']
 ['truck' 'oven' 'knife' 'keyboard' 'elephant' 'dog' 'clock' 'chair'
  'cat' 'car' 'bottle' 'boat' 'bird' 'bicycle' 'bear' 'airplane']
 ['truck' 'oven' 'knife' 'keyboard' 'elephant' 'dog' 'clock' 'chair'
  'cat' 'car' 'bottle' 'boat' 'bird' 'bicycle' 'bear' 'airplane']
 ['truck' 'oven' 'knife' 'keyboard' 'elephant' 'dog' 'clock' 'chair'
  'cat' 'car' 'bottle' 'boat' 'bird' 'bicycle' 'bear' 'airplane']
 ['truck' 'oven' 'knife' 'keyboard' 'elephant' 'dog' 'clock' 'chair'
  'cat' 'car' 'bottle' 'boat' 'bird' 'bicycle' 'bear' 'airplane']
 ['truck' 'oven' 'knife' 'keyboard' 'elephant' 'dog' 'clock' 'chair'
  'cat' 'car' 'bottle' 'boat' 'bird' 'bicycle' 'bear' 'airplane']
 ['truck' 'oven' 'knife' 'keyboard' 'elephant' 'dog' 'clock' 'chair'
  'cat' 'car' 'bottle' 'boat' 'bird' 'bicycle' 'bear' 'airplane']
 ['truck' 'oven' 'knife' 'keyboard' 'elephant' 'dog' 'clock' 'chair'
  'cat' 'car' 'bottle' 'boat' 'bird' 'bicycle' 'bear' 'airplane']
 ['truck' 'oven' 'knife' 'keyboard' 'elephant' 'dog' 'clock' 'chair'
  'cat' 'car' 'bottle' 'boat' 'bird' 'bicycle' 'bear' 'airplane']
 ['truck' 'oven' 'knife' 'keyboard' 'elephant' 'dog' 'clock' 'chair'
  'cat' 'car' 'bottle' 'boat' 'bird' 'bicycle' 'bear' 'airplane']
 ['truck' 'oven' 'knife' 'keyboard' 'elephant' 'dog' 'clock' 'chair'
  'cat' 'car' 'bottle' 'boat' 'bird' 'bicycle' 'bear' 'airplane']
 ['truck' 'oven' 'knife' 'keyboard' 'elephant' 'dog' 'clock' 'chair'
  'cat' 'car' 'bottle' 'boat' 'bird' 'bicycle' 'bear' 'airplane']
 ['truck' 'oven' 'knife' 'keyboard' 'elephant' 'dog' 'clock' 'chair'
  'cat' 'car' 'bottle' 'boat' 'bird' 'bicycle' 'bear' 'airplane']
 ['truck' 'oven' 'knife' 'keyboard' 'elephant' 'clock' 'chair' 'cat'
  'car' 'boat' 'bird' 'bicycle' 'bear' 'airplane' 'bottle' 'dog']
 ['truck' 'oven' 'knife' 'keyboard' 'elephant' 'dog' 'clock' 'chair'
  'cat' 'car' 'bottle' 'boat' 'bird' 'bicycle' 'bear' 'airplane']
 ['truck' 'oven' 'knife' 'keyboard' 'elephant' 'dog' 'clock' 'chair'
  'cat' 'car' 'bottle' 'boat' 'bird' 'bicycle' 'bear' 'airplane']
 ['truck' 'oven' 'knife' 'keyboard' 'elephant' 'dog' 'clock' 'chair'
  'cat' 'car' 'bottle' 'boat' 'bird' 'bicycle' 'bear' 'airplane']
 ['truck' 'oven' 'knife' 'keyboard' 'elephant' 'dog' 'clock' 'chair'
  'cat' 'car' 'bottle' 'boat' 'bird' 'bicycle' 'bear' 'airplane']
 ['truck' 'oven' 'knife' 'keyboard' 'elephant' 'dog' 'clock' 'chair'
  'cat' 'car' 'bottle' 'boat' 'bird' 'bicycle' 'bear' 'airplane']
 ['truck' 'oven' 'knife' 'keyboard' 'elephant' 'dog' 'clock' 'chair'
  'cat' 'car' 'bottle' 'boat' 'bird' 'bicycle' 'bear' 'airplane']
 ['truck' 'oven' 'knife' 'keyboard' 'elephant' 'dog' 'clock' 'chair'
  'cat' 'car' 'bottle' 'boat' 'bird' 'bicycle' 'bear' 'airplane']
 ['truck' 'oven' 'knife' 'keyboard' 'elephant' 'dog' 'clock' 'chair'
  'cat' 'car' 'bottle' 'boat' 'bird' 'bicycle' 'bear' 'airplane']
 ['truck' 'oven' 'knife' 'keyboard' 'elephant' 'dog' 'clock' 'chair'
  'cat' 'car' 'bottle' 'boat' 'bird' 'bicycle' 'bear' 'airplane']
 ['truck' 'oven' 'knife' 'keyboard' 'elephant' 'dog' 'clock' 'chair'
  'cat' 'car' 'bottle' 'boat' 'bird' 'bicycle' 'bear' 'airplane']
 ['truck' 'oven' 'knife' 'keyboard' 'elephant' 'dog' 'clock' 'chair'
  'cat' 'car' 'bottle' 'boat' 'bird' 'bicycle' 'bear' 'airplane']]",airplane,NaN,airplane4-bird3.png
xception,1,9,NaN,"[['bird' 'bottle' 'truck' 'oven' 'knife' 'keyboard' 'elephant' 'clock'
  'chair' 'cat' 'car' 'boat' 'bicycle' 'bear' 'airplane' 'dog']
 ['bird' 'cat' 'bottle' 'truck' 'oven' 'knife' 'keyboard' 'elephant'
  'chair' 'boat' 'bicycle' 'bear' 'airplane' 'clock' 'car' 'dog']
 ['bird' 'truck' 'oven' 'knife' 'keyboard' 'elephant' 'clock' 'chair'
  'cat' 'car' 'boat' 'bicycle' 'bear' 'airplane' 'bottle' 'dog']
 ['bird' 'truck' 'oven' 'knife' 'keyboard' 'elephant' 'dog' 'clock'
  'chair' 'cat' 'car' 'bottle' 'boat' 'bicycle' 'bear' 'airplane']
 ['truck' 'oven' 'knife' 'keyboard' 'elephant' 'clock' 'chair' 'cat'
  'car' 'bottle' 'boat' 'bicycle' 'bear' 'airplane' 'dog' 'bird']
 ['bird' 'bottle' 'truck' 'oven' 'knife' 'keyboard' 'elephant' 'clock'
  'chair' 'cat' 'car' 'boat' 'bicycle' 'bear' 'airplane' 'dog']
 ['truck' 'oven' 'knife' 'keyboard' 'elephant' 'clock' 'chair' 'car'
  'bicycle' 'bear' 'airplane' 'dog' 'cat' 'boat' 'bottle' 'bird']
 ['dog' 'cat' 'bottle' 'bird' 'truck' 'oven' 'knife' 'keyboard'
  'elephant' 'chair' 'boat' 'bicycle' 'bear' 'airplane' 'clock' 'car']
 ['bird' 'truck' 'oven' 'knife' 'keyboard' 'elephant' 'clock' 'chair'
  'cat' 'car' 'boat' 'bicycle' 'bear' 'airplane' 'dog' 'bottle']
 ['bird' 'dog' 'bottle' 'truck' 'oven' 'knife' 'keyboard' 'elephant'
  'clock' 'chair' 'cat' 'car' 'boat' 'bicycle' 'bear' 'airplane']
 ['bird' 'dog' 'truck' 'oven' 'knife' 'keyboard' 'elephant' 'clock'
  'chair' 'cat' 'car' 'bottle' 'boat' 'bicycle' 'bear' 'airplane']
 ['bird' 'truck' 'oven' 'knife' 'keyboard' 'elephant' 'dog' 'clock'
  'chair' 'cat' 'car' 'bottle' 'boat' 'bicycle' 'bear' 'airplane']
 ['bird' 'dog' 'clock' 'car' 'truck' 'oven' 'knife' 'keyboard' 'elephant'
  'chair' 'boat' 'bicycle' 'bear' 'airplane' 'cat' 'bottle']
 ['bird' 'dog' 'clock' 'car' 'truck' 'oven' 'knife' 'keyboard' 'elephant'
  'chair' 'boat' 'bicycle' 'bear' 'airplane' 'cat' 'bottle']
 ['bird' 'bottle' 'truck' 'oven' 'knife' 'keyboard' 'elephant' 'clock'
  'chair' 'cat' 'car' 'boat' 'bicycle' 'bear' 'airplane' 'dog']
 ['bird' 'truck' 'oven' 'knife' 'keyboard' 'elephant' 'clock' 'chair'
  'cat' 'car' 'boat' 'bicycle' 'bear' 'airplane' 'dog' 'bottle']
 ['bird' 'clock' 'car' 'truck' 'oven' 'knife' 'keyboard' 'elephant'
  'chair' 'boat' 'bicycle' 'bear' 'airplane' 'cat' 'bottle' 'dog']
 ['bird' 'truck' 'oven' 'knife' 'keyboard' 'elephant' 'dog' 'clock'
  'chair' 'cat' 'car' 'bottle' 'bicycle' 'bear' 'airplane' 'boat']
 ['bird' 'bottle' 'dog' 'cat' 'boat' 'truck' 'oven' 'knife' 'keyboard'
  'elephant' 'clock' 'chair' 'car' 'bicycle' 'bear' 'airplane']
 ['cat' 'bottle' 'truck' 'oven' 'knife' 'keyboard' 'elephant' 'chair'
  'boat' 'bird' 'bicycle' 'bear' 'airplane' 'clock' 'car' 'dog']
 ['bird' 'truck' 'oven' 'knife' 'keyboard' 'elephant' 'clock' 'chair'
  'cat' 'car' 'bottle' 'bicycle' 'bear' 'airplane' 'boat' 'dog']
 ['bird' 'dog' 'boat' 'truck' 'oven' 'knife' 'keyboard' 'elephant'
  'clock' 'chair' 'cat' 'car' 'bottle' 'bicycle' 'bear' 'airplane']
 ['bottle' 'bird' 'truck' 'oven' 'knife' 'keyboard' 'elephant' 'clock'
  'chair' 'cat' 'car' 'boat' 'bicycle' 'bear' 'airplane' 'dog']
 ['bird' 'dog' 'clock' 'car' 'truck' 'oven' 'knife' 'keyboard' 'elephant'
  'chair' 'boat' 'bicycle' 'bear' 'airplane' 'cat' 'bottle']
 ['dog' 'boat' 'truck' 'oven' 'knife' 'keyboard' 'elephant' 'clock'
  'chair' 'cat' 'car' 'bottle' 'bird' 'bicycle' 'bear' 'airplane']
 ['dog' 'truck' 'oven' 'knife' 'keyboard' 'elephant' 'clock' 'chair'
  'cat' 'car' 'bottle' 'bicycle' 'bear' 'airplane' 'boat' 'bird']
 ['bird' 'dog' 'cat' 'bottle' 'truck' 'oven' 'knife' 'keyboard'
  'elephant' 'chair' 'boat' 'bicycle' 'bear' 'airplane' 'clock' 'car']
 ['dog' 'bottle' 'cat' 'boat' 'bird' 'truck' 'oven' 'knife' 'keyboard'
  'elephant' 'clock' 'chair' 'car' 'bicycle' 'bear' 'airplane']
 ['bird' 'clock' 'car' 'truck' 'oven' 'knife' 'keyboard' 'elephant'
  'chair' 'boat' 'bicycle' 'bear' 'airplane' 'cat' 'bottle' 'dog']
 ['dog' 'boat' 'truck' 'oven' 'knife' 'keyboard' 'elephant' 'clock'
  'chair' 'cat' 'car' 'bottle' 'bird' 'bicycle' 'bear' 'airplane']
 ['dog' 'truck' 'oven' 'knife' 'keyboard' 'elephant' 'clock' 'chair'
  'cat' 'car' 'bottle' 'bird' 'bicycle' 'bear' 'airplane' 'boat']
 ['bird' 'dog' 'clock' 'car' 'truck' 'oven' 'knife' 'keyboard' 'elephant'
  'chair' 'boat' 'bicycle' 'bear' 'airplane' 'cat' 'bottle']]",airplane,NaN,airplane4-boat3.png
xception,1,10,NaN,"[['bird' 'clock' 'car' 'truck' 'oven' 'knife' 'keyboard' 'elephant'
  'chair' 'boat' 'bicycle' 'bear' 'airplane' 'dog' 'cat' 'bottle']
 ['bird' 'dog' 'bottle' 'truck' 'oven' 'knife' 'keyboard' 'elephant'
  'clock' 'chair' 'cat' 'car' 'boat' 'bicycle' 'bear' 'airplane']
 ['bird' 'bottle' 'truck' 'oven' 'knife' 'keyboard' 'elephant' 'dog'
  'clock' 'chair' 'cat' 'car' 'boat' 'bicycle' 'bear' 'airplane']
 ['bird' 'truck' 'oven' 'knife' 'keyboard' 'elephant' 'clock' 'chair'
  'car' 'bicycle' 'bear' 'airplane' 'cat' 'boat' 'dog' 'bottle']
 ['bird' 'dog' 'boat' 'truck' 'oven' 'knife' 'keyboard' 'elephant'
  'clock' 'chair' 'cat' 'car' 'bottle' 'bicycle' 'bear' 'airplane']
 ['bird' 'dog' 'truck' 'oven' 'knife' 'keyboard' 'elephant' 'clock'
  'chair' 'cat' 'car' 'boat' 'bicycle' 'bear' 'airplane' 'bottle']
 ['bird' 'truck' 'oven' 'knife' 'keyboard' 'elephant' 'clock' 'chair'
  'cat' 'car' 'bottle' 'bicycle' 'bear' 'airplane' 'boat' 'dog']
 ['bird' 'dog' 'truck' 'oven' 'knife' 'keyboard' 'elephant' 'clock'
  'chair' 'cat' 'car' 'boat' 'bicycle' 'bear' 'airplane' 'bottle']
 ['bird' 'clock' 'car' 'truck' 'oven' 'knife' 'keyboard' 'elephant' 'dog'
  'chair' 'boat' 'bicycle' 'bear' 'airplane' 'cat' 'bottle']
 ['bird' 'dog' 'clock' 'car' 'truck' 'oven' 'knife' 'keyboard' 'elephant'
  'chair' 'boat' 'bicycle' 'bear' 'airplane' 'cat' 'bottle']
 ['bird' 'clock' 'car' 'truck' 'oven' 'knife' 'keyboard' 'elephant'
  'chair' 'boat' 'bicycle' 'bear' 'airplane' 'cat' 'bottle' 'dog']
 ['bird' 'boat' 'truck' 'oven' 'knife' 'keyboard' 'elephant' 'clock'
  'chair' 'cat' 'car' 'bottle' 'bicycle' 'bear' 'airplane' 'dog']
 ['bird' 'truck' 'oven' 'knife' 'keyboard' 'elephant' 'clock' 'chair'
  'cat' 'car' 'bottle' 'bicycle' 'bear' 'airplane' 'boat' 'dog']
 ['bird' 'dog' 'truck' 'oven' 'knife' 'keyboard' 'elephant' 'clock'
  'chair' 'cat' 'car' 'bottle' 'bicycle' 'bear' 'airplane' 'boat']
 ['bird' 'truck' 'oven' 'knife' 'keyboard' 'elephant' 'clock' 'chair'
  'cat' 'car' 'bottle' 'boat' 'bicycle' 'bear' 'airplane' 'dog']
 ['bird' 'dog' 'cat' 'bottle' 'truck' 'oven' 'knife' 'keyboard'
  'elephant' 'chair' 'boat' 'bicycle' 'bear' 'airplane' 'clock' 'car']
 ['bird' 'dog' 'truck' 'oven' 'knife' 'keyboard' 'elephant' 'clock'
  'chair' 'cat' 'car' 'bottle' 'bicycle' 'bear' 'airplane' 'boat']
 ['bird' 'dog' 'clock' 'car' 'truck' 'oven' 'knife' 'keyboard' 'elephant'
  'chair' 'boat' 'bicycle' 'bear' 'airplane' 'cat' 'bottle']
 ['bird' 'bottle' 'truck' 'oven' 'knife' 'keyboard' 'elephant' 'clock'
  'chair' 'cat' 'car' 'boat' 'bicycle' 'bear' 'airplane' 'dog']
 ['bird' 'clock' 'car' 'truck' 'oven' 'knife' 'keyboard' 'elephant'
  'chair' 'boat' 'bicycle' 'bear' 'airplane' 'cat' 'bottle' 'dog']
 ['bird' 'truck' 'oven' 'knife' 'keyboard' 'elephant' 'clock' 'chair'
  'cat' 'car' 'bottle' 'boat' 'bicycle' 'bear' 'airplane' 'dog']
 ['bird' 'truck' 'oven' 'knife' 'keyboard' 'elephant' 'dog' 'clock'
  'chair' 'cat' 'car' 'boat' 'bicycle' 'bear' 'airplane' 'bottle']
 ['bird' 'dog' 'cat' 'bottle' 'truck' 'oven' 'knife' 'keyboard'
  'elephant' 'chair' 'boat' 'bicycle' 'bear' 'airplane' 'clock' 'car']
 ['bird' 'dog' 'cat' 'bottle' 'truck' 'oven' 'knife' 'keyboard'
  'elephant' 'chair' 'boat' 'bicycle' 'bear' 'airplane' 'clock' 'car']
 ['bird' 'bottle' 'truck' 'oven' 'knife' 'keyboard' 'elephant' 'clock'
  'chair' 'cat' 'car' 'boat' 'bicycle' 'bear' 'airplane' 'dog']
 ['bird' 'cat' 'bottle' 'truck' 'oven' 'knife' 'keyboard' 'elephant'
  'chair' 'boat' 'bicycle' 'bear' 'airplane' 'clock' 'car' 'dog']
 ['bird' 'dog' 'clock' 'car' 'truck' 'oven' 'knife' 'keyboard' 'elephant'
  'chair' 'boat' 'bicycle' 'bear' 'airplane' 'cat' 'bottle']
 ['bird' 'dog' 'bottle' 'truck' 'oven' 'knife' 'keyboard' 'elephant'
  'clock' 'chair' 'cat' 'car' 'boat' 'bicycle' 'bear' 'airplane']
 ['bird' 'clock' 'car' 'truck' 'oven' 'knife' 'keyboard' 'elephant'
  'chair' 'boat' 'bicycle' 'bear' 'airplane' 'cat' 'bottle' 'dog']
 ['bird' 'clock' 'car' 'truck' 'oven' 'knife' 'keyboard' 'elephant' 'dog'
  'chair' 'boat' 'bicycle' 'bear' 'airplane' 'cat' 'bottle']
 ['bird' 'truck' 'oven' 'knife' 'keyboard' 'elephant' 'clock' 'chair'
  'cat' 'car' 'bottle' 'boat' 'bicycle' 'bear' 'airplane' 'dog']
 ['bird' 'truck' 'oven' 'knife' 'keyboard' 'elephant' 'dog' 'clock'
  'chair' 'cat' 'car' 'bottle' 'boat' 'bicycle' 'bear' 'airplane']]",airplane,NaN,airplane4-bottle1.png
xception,1,11,NaN,"[['bird' 'dog' 'clock' 'car' 'truck' 'oven' 'knife' 'keyboard' 'elephant'
  'chair' 'boat' 'bicycle' 'bear' 'airplane' 'cat' 'bottle']
 ['bird' 'truck' 'oven' 'knife' 'keyboard' 'elephant' 'clock' 'chair'
  'cat' 'car' 'bottle' 'bicycle' 'bear' 'airplane' 'boat' 'dog']
 ['bird' 'dog' 'truck' 'oven' 'knife' 'keyboard' 'elephant' 'clock'
  'chair' 'cat' 'car' 'bottle' 'boat' 'bicycle' 'bear' 'airplane']
 ['bird' 'dog' 'clock' 'car' 'truck' 'oven' 'knife' 'keyboard' 'elephant'
  'chair' 'boat' 'bicycle' 'bear' 'airplane' 'cat' 'bottle']
 ['bird' 'dog' 'truck' 'oven' 'knife' 'keyboard' 'elephant' 'clock'
  'chair' 'cat' 'car' 'bottle' 'bicycle' 'bear' 'airplane' 'boat']
 ['bird' 'bottle' 'truck' 'oven' 'knife' 'keyboard' 'elephant' 'clock'
  'chair' 'cat' 'car' 'boat' 'bicycle' 'bear' 'airplane' 'dog']
 ['bird' 'dog' 'bottle' 'truck' 'oven' 'knife' 'keyboard' 'elephant'
  'clock' 'chair' 'cat' 'car' 'boat' 'bicycle' 'bear' 'airplane']
 ['bird' 'clock' 'car' 'truck' 'oven' 'knife' 'keyboard' 'elephant'
  'chair' 'boat' 'bicycle' 'bear' 'airplane' 'dog' 'cat' 'bottle']
 ['bird' 'dog' 'cat' 'bottle' 'truck' 'oven' 'knife' 'keyboard'
  'elephant' 'chair' 'boat' 'bicycle' 'bear' 'airplane' 'clock' 'car']
 ['bird' 'dog' 'boat' 'truck' 'oven' 'knife' 'keyboard' 'elephant'
  'clock' 'chair' 'cat' 'car' 'bottle' 'bicycle' 'bear' 'airplane']
 ['bird' 'dog' 'cat' 'bottle' 'truck' 'oven' 'knife' 'keyboard'
  'elephant' 'chair' 'boat' 'bicycle' 'bear' 'airplane' 'clock' 'car']
 ['bird' 'boat' 'truck' 'oven' 'knife' 'keyboard' 'elephant' 'clock'
  'chair' 'cat' 'car' 'bottle' 'bicycle' 'bear' 'airplane' 'dog']
 ['bird' 'clock' 'car' 'truck' 'oven' 'knife' 'keyboard' 'elephant'
  'chair' 'boat' 'bicycle' 'bear' 'airplane' 'cat' 'bottle' 'dog']
 ['bird' 'truck' 'oven' 'knife' 'keyboard' 'elephant' 'clock' 'chair'
  'car' 'bicycle' 'bear' 'airplane' 'dog' 'cat' 'boat' 'bottle']
 ['bird' 'bottle' 'truck' 'oven' 'knife' 'keyboard' 'elephant' 'dog'
  'clock' 'chair' 'cat' 'car' 'boat' 'bicycle' 'bear' 'airplane']
 ['bird' 'cat' 'bottle' 'truck' 'oven' 'knife' 'keyboard' 'elephant'
  'chair' 'boat' 'bicycle' 'bear' 'airplane' 'dog' 'clock' 'car']
 ['bird' 'dog' 'clock' 'car' 'truck' 'oven' 'knife' 'keyboard' 'elephant'
  'chair' 'boat' 'bicycle' 'bear' 'airplane' 'cat' 'bottle']
 ['bird' 'dog' 'truck' 'oven' 'knife' 'keyboard' 'elephant' 'clock'
  'chair' 'cat' 'car' 'bottle' 'boat' 'bicycle' 'bear' 'airplane']
 ['bird' 'clock' 'car' 'truck' 'oven' 'knife' 'keyboard' 'elephant' 'dog'
  'chair' 'boat' 'bicycle' 'bear' 'airplane' 'cat' 'bottle']
 ['bird' 'truck' 'oven' 'knife' 'keyboard' 'elephant' 'clock' 'chair'
  'cat' 'car' 'bottle' 'boat' 'bicycle' 'bear' 'airplane' 'dog']
 ['bird' 'dog' 'boat' 'truck' 'oven' 'knife' 'keyboard' 'elephant'
  'clock' 'chair' 'cat' 'car' 'bottle' 'bicycle' 'bear' 'airplane']
 ['bird' 'bottle' 'dog' 'cat' 'boat' 'truck' 'oven' 'knife' 'keyboard'
  'elephant' 'clock' 'chair' 'car' 'bicycle' 'bear' 'airplane']
 ['bird' 'dog' 'cat' 'bottle' 'truck' 'oven' 'knife' 'keyboard'
  'elephant' 'chair' 'boat' 'bicycle' 'bear' 'airplane' 'clock' 'car']
 ['bird' 'truck' 'oven' 'knife' 'keyboard' 'elephant' 'clock' 'chair'
  'cat' 'car' 'bottle' 'bicycle' 'bear' 'airplane' 'dog' 'boat']
 ['bird' 'truck' 'oven' 'knife' 'keyboard' 'elephant' 'clock' 'chair'
  'car' 'bicycle' 'bear' 'airplane' 'cat' 'boat' 'dog' 'bottle']
 ['bird' 'cat' 'bottle' 'truck' 'oven' 'knife' 'keyboard' 'elephant'
  'dog' 'chair' 'boat' 'bicycle' 'bear' 'airplane' 'clock' 'car']
 ['bird' 'truck' 'oven' 'knife' 'keyboard' 'elephant' 'clock' 'chair'
  'cat' 'car' 'bottle' 'boat' 'bicycle' 'bear' 'airplane' 'dog']
 ['bird' 'bottle' 'truck' 'oven' 'knife' 'keyboard' 'elephant' 'dog'
  'clock' 'chair' 'cat' 'car' 'boat' 'bicycle' 'bear' 'airplane']
 ['bird' 'truck' 'oven' 'knife' 'keyboard' 'elephant' 'dog' 'clock'
  'chair' 'cat' 'car' 'bottle' 'bicycle' 'bear' 'airplane' 'boat']
 ['bird' 'bottle' 'truck' 'oven' 'knife' 'keyboard' 'elephant' 'clock'
  'chair' 'cat' 'car' 'boat' 'bicycle' 'bear' 'airplane' 'dog']
 ['bird' 'cat' 'bottle' 'truck' 'oven' 'knife' 'keyboard' 'elephant'
  'chair' 'boat' 'bicycle' 'bear' 'airplane' 'clock' 'car' 'dog']
 ['bird' 'truck' 'oven' 'knife' 'keyboard' 'elephant' 'clock' 'chair'
  'cat' 'car' 'bottle' 'bicycle' 'bear' 'airplane' 'boat' 'dog']]",airplane,NaN,airplane4-car1.png
xception,1,12,NaN,"[['bird' 'truck' 'oven' 'knife' 'keyboard' 'elephant' 'clock' 'chair'
  'cat' 'car' 'bottle' 'boat' 'bicycle' 'bear' 'airplane' 'dog']
 ['bird' 'dog' 'boat' 'truck' 'oven' 'knife' 'keyboard' 'elephant'
  'clock' 'chair' 'cat' 'car' 'bottle' 'bicycle' 'bear' 'airplane']
 ['bird' 'cat' 'bottle' 'truck' 'oven' 'knife' 'keyboard' 'elephant'
  'chair' 'boat' 'bicycle' 'bear' 'airplane' 'dog' 'clock' 'car']
 ['bird' 'cat' 'bottle' 'truck' 'oven' 'knife' 'keyboard' 'elephant'
  'dog' 'chair' 'boat' 'bicycle' 'bear' 'airplane' 'clock' 'car']
 ['bird' 'dog' 'clock' 'car' 'truck' 'oven' 'knife' 'keyboard' 'elephant'
  'chair' 'boat' 'bicycle' 'bear' 'airplane' 'cat' 'bottle']
 ['bird' 'bottle' 'dog' 'cat' 'boat' 'truck' 'oven' 'knife' 'keyboard'
  'elephant' 'clock' 'chair' 'car' 'bicycle' 'bear' 'airplane']
 ['bird' 'dog' 'clock' 'car' 'truck' 'oven' 'knife' 'keyboard' 'elephant'
  'chair' 'boat' 'bicycle' 'bear' 'airplane' 'cat' 'bottle']
 ['bird' 'dog' 'truck' 'oven' 'knife' 'keyboard' 'elephant' 'clock'
  'chair' 'cat' 'car' 'bottle' 'boat' 'bicycle' 'bear' 'airplane']
 ['bird' 'truck' 'oven' 'knife' 'keyboard' 'elephant' 'clock' 'chair'
  'cat' 'car' 'bottle' 'bicycle' 'bear' 'airplane' 'boat' 'dog']
 ['bird' 'dog' 'bottle' 'truck' 'oven' 'knife' 'keyboard' 'elephant'
  'clock' 'chair' 'cat' 'car' 'boat' 'bicycle' 'bear' 'airplane']
 ['bird' 'truck' 'oven' 'knife' 'keyboard' 'elephant' 'dog' 'clock'
  'chair' 'cat' 'car' 'boat' 'bicycle' 'bear' 'airplane' 'bottle']
 ['bird' 'dog' 'clock' 'car' 'truck' 'oven' 'knife' 'keyboard' 'elephant'
  'chair' 'boat' 'bicycle' 'bear' 'airplane' 'cat' 'bottle']
 ['bird' 'dog' 'bottle' 'cat' 'boat' 'truck' 'oven' 'knife' 'keyboard'
  'elephant' 'clock' 'chair' 'car' 'bicycle' 'bear' 'airplane']
 ['bird' 'dog' 'bottle' 'truck' 'oven' 'knife' 'keyboard' 'elephant'
  'clock' 'chair' 'cat' 'car' 'boat' 'bicycle' 'bear' 'airplane']
 ['bird' 'bottle' 'truck' 'oven' 'knife' 'keyboard' 'elephant' 'dog'
  'clock' 'chair' 'cat' 'car' 'boat' 'bicycle' 'bear' 'airplane']
 ['bird' 'truck' 'oven' 'knife' 'keyboard' 'elephant' 'clock' 'chair'
  'cat' 'car' 'bottle' 'bicycle' 'bear' 'airplane' 'boat' 'dog']
 ['bird' 'dog' 'clock' 'car' 'truck' 'oven' 'knife' 'keyboard' 'elephant'
  'chair' 'boat' 'bicycle' 'bear' 'airplane' 'cat' 'bottle']
 ['bird' 'dog' 'cat' 'bottle' 'truck' 'oven' 'knife' 'keyboard'
  'elephant' 'chair' 'boat' 'bicycle' 'bear' 'airplane' 'clock' 'car']
 ['bird' 'clock' 'car' 'truck' 'oven' 'knife' 'keyboard' 'elephant'
  'chair' 'boat' 'bicycle' 'bear' 'airplane' 'cat' 'bottle' 'dog']
 ['bird' 'boat' 'truck' 'oven' 'knife' 'keyboard' 'elephant' 'clock'
  'chair' 'cat' 'car' 'bottle' 'bicycle' 'bear' 'airplane' 'dog']
 ['bird' 'dog' 'truck' 'oven' 'knife' 'keyboard' 'elephant' 'clock'
  'chair' 'cat' 'car' 'boat' 'bicycle' 'bear' 'airplane' 'bottle']
 ['bird' 'boat' 'truck' 'oven' 'knife' 'keyboard' 'elephant' 'clock'
  'chair' 'cat' 'car' 'bottle' 'bicycle' 'bear' 'airplane' 'dog']
 ['bird' 'boat' 'truck' 'oven' 'knife' 'keyboard' 'elephant' 'clock'
  'chair' 'cat' 'car' 'bottle' 'bicycle' 'bear' 'airplane' 'dog']
 ['bird' 'clock' 'car' 'truck' 'oven' 'knife' 'keyboard' 'elephant'
  'chair' 'boat' 'bicycle' 'bear' 'airplane' 'cat' 'bottle' 'dog']
 ['bird' 'truck' 'oven' 'knife' 'keyboard' 'elephant' 'dog' 'clock'
  'chair' 'cat' 'car' 'boat' 'bicycle' 'bear' 'airplane' 'bottle']
 ['bird' 'bottle' 'truck' 'oven' 'knife' 'keyboard' 'elephant' 'clock'
  'chair' 'cat' 'car' 'boat' 'bicycle' 'bear' 'airplane' 'dog']
 ['bird' 'truck' 'oven' 'knife' 'keyboard' 'elephant' 'clock' 'chair'
  'cat' 'car' 'bottle' 'bicycle' 'bear' 'airplane' 'boat' 'dog']
 ['bird' 'dog' 'bottle' 'truck' 'oven' 'knife' 'keyboard' 'elephant'
  'clock' 'chair' 'cat' 'car' 'boat' 'bicycle' 'bear' 'airplane']
 ['bird' 'bottle' 'truck' 'oven' 'knife' 'keyboard' 'elephant' 'clock'
  'chair' 'cat' 'car' 'boat' 'bicycle' 'bear' 'airplane' 'dog']
 ['bird' 'dog' 'truck' 'oven' 'knife' 'keyboard' 'elephant' 'clock'
  'chair' 'cat' 'car' 'boat' 'bicycle' 'bear' 'airplane' 'bottle']
 ['bird' 'dog' 'bottle' 'cat' 'boat' 'truck' 'oven' 'knife' 'keyboard'
  'elephant' 'clock' 'chair' 'car' 'bicycle' 'bear' 'airplane']
 ['bird' 'truck' 'oven' 'knife' 'keyboard' 'elephant' 'clock' 'chair'
  'cat' 'car' 'boat' 'bicycle' 'bear' 'airplane' 'bottle' 'dog']]",airplane,NaN,airplane4-cat3.png
xception,1,13,NaN,"[['bird' 'clock' 'car' 'truck' 'oven' 'knife' 'keyboard' 'elephant'
  'chair' 'boat' 'bicycle' 'bear' 'airplane' 'cat' 'bottle' 'dog']
 ['bird' 'truck' 'oven' 'knife' 'keyboard' 'elephant' 'clock' 'chair'
  'cat' 'car' 'boat' 'bicycle' 'bear' 'airplane' 'bottle' 'dog']
 ['bird' 'bottle' 'dog' 'cat' 'boat' 'truck' 'oven' 'knife' 'keyboard'
  'elephant' 'clock' 'chair' 'car' 'bicycle' 'bear' 'airplane']
 ['bird' 'truck' 'oven' 'knife' 'keyboard' 'elephant' 'clock' 'chair'
  'cat' 'car' 'boat' 'bicycle' 'bear' 'airplane' 'bottle' 'dog']
 ['bird' 'dog' 'truck' 'oven' 'knife' 'keyboard' 'elephant' 'clock'
  'chair' 'cat' 'car' 'bottle' 'bicycle' 'bear' 'airplane' 'boat']
 ['bird' 'dog' 'cat' 'bottle' 'truck' 'oven' 'knife' 'keyboard'
  'elephant' 'chair' 'boat' 'bicycle' 'bear' 'airplane' 'clock' 'car']
 ['bird' 'truck' 'oven' 'knife' 'keyboard' 'elephant' 'clock' 'chair'
  'car' 'bicycle' 'bear' 'airplane' 'cat' 'boat' 'bottle' 'dog']
 ['bird' 'bottle' 'cat' 'boat' 'truck' 'oven' 'knife' 'keyboard'
  'elephant' 'dog' 'clock' 'chair' 'car' 'bicycle' 'bear' 'airplane']
 ['bird' 'dog' 'truck' 'oven' 'knife' 'keyboard' 'elephant' 'clock'
  'chair' 'cat' 'car' 'boat' 'bicycle' 'bear' 'airplane' 'bottle']
 ['bird' 'dog' 'boat' 'truck' 'oven' 'knife' 'keyboard' 'elephant'
  'clock' 'chair' 'cat' 'car' 'bottle' 'bicycle' 'bear' 'airplane']
 ['bird' 'dog' 'truck' 'oven' 'knife' 'keyboard' 'elephant' 'clock'
  'chair' 'cat' 'car' 'boat' 'bicycle' 'bear' 'airplane' 'bottle']
 ['bird' 'truck' 'oven' 'knife' 'keyboard' 'elephant' 'clock' 'chair'
  'cat' 'car' 'bottle' 'boat' 'bicycle' 'bear' 'airplane' 'dog']
 ['bird' 'truck' 'oven' 'knife' 'keyboard' 'elephant' 'clock' 'chair'
  'cat' 'car' 'boat' 'bicycle' 'bear' 'airplane' 'dog' 'bottle']
 ['bird' 'bottle' 'truck' 'oven' 'knife' 'keyboard' 'elephant' 'clock'
  'chair' 'cat' 'car' 'boat' 'bicycle' 'bear' 'airplane' 'dog']
 ['bird' 'truck' 'oven' 'knife' 'keyboard' 'elephant' 'clock' 'chair'
  'cat' 'car' 'bottle' 'bicycle' 'bear' 'airplane' 'dog' 'boat']
 ['bird' 'truck' 'oven' 'knife' 'keyboard' 'elephant' 'dog' 'clock'
  'chair' 'cat' 'car' 'bottle' 'bicycle' 'bear' 'airplane' 'boat']
 ['bird' 'boat' 'truck' 'oven' 'knife' 'keyboard' 'elephant' 'dog'
  'clock' 'chair' 'cat' 'car' 'bottle' 'bicycle' 'bear' 'airplane']
 ['bird' 'truck' 'oven' 'knife' 'keyboard' 'elephant' 'clock' 'chair'
  'cat' 'car' 'boat' 'bicycle' 'bear' 'airplane' 'bottle' 'dog']
 ['bird' 'dog' 'truck' 'oven' 'knife' 'keyboard' 'elephant' 'clock'
  'chair' 'cat' 'car' 'boat' 'bicycle' 'bear' 'airplane' 'bottle']
 ['bird' 'truck' 'oven' 'knife' 'keyboard' 'elephant' 'dog' 'clock'
  'chair' 'cat' 'car' 'boat' 'bicycle' 'bear' 'airplane' 'bottle']
 ['bird' 'truck' 'oven' 'knife' 'keyboard' 'elephant' 'dog' 'clock'
  'chair' 'cat' 'car' 'bottle' 'boat' 'bicycle' 'bear' 'airplane']
 ['bird' 'truck' 'oven' 'knife' 'keyboard' 'elephant' 'clock' 'chair'
  'cat' 'car' 'bottle' 'boat' 'bicycle' 'bear' 'airplane' 'dog']
 ['bird' 'boat' 'truck' 'oven' 'knife' 'keyboard' 'elephant' 'clock'
  'chair' 'cat' 'car' 'bottle' 'bicycle' 'bear' 'airplane' 'dog']
 ['bird' 'dog' 'truck' 'oven' 'knife' 'keyboard' 'elephant' 'clock'
  'chair' 'cat' 'car' 'boat' 'bicycle' 'bear' 'airplane' 'bottle']
 ['bird' 'clock' 'car' 'truck' 'oven' 'knife' 'keyboard' 'elephant'
  'chair' 'boat' 'bicycle' 'bear' 'airplane' 'cat' 'bottle' 'dog']
 ['bird' 'truck' 'oven' 'knife' 'keyboard' 'elephant' 'clock' 'chair'
  'cat' 'car' 'bottle' 'boat' 'bicycle' 'bear' 'airplane' 'dog']
 ['bird' 'truck' 'oven' 'knife' 'keyboard' 'elephant' 'clock' 'chair'
  'cat' 'car' 'boat' 'bicycle' 'bear' 'airplane' 'bottle' 'dog']
 ['bird' 'dog' 'boat' 'truck' 'oven' 'knife' 'keyboard' 'elephant'
  'clock' 'chair' 'cat' 'car' 'bottle' 'bicycle' 'bear' 'airplane']
 ['bird' 'truck' 'oven' 'knife' 'keyboard' 'elephant' 'clock' 'chair'
  'car' 'bicycle' 'bear' 'airplane' 'dog' 'cat' 'boat' 'bottle']
 ['bird' 'dog' 'clock' 'car' 'truck' 'oven' 'knife' 'keyboard' 'elephant'
  'chair' 'boat' 'bicycle' 'bear' 'airplane' 'cat' 'bottle']
 ['bird' 'truck' 'oven' 'knife' 'keyboard' 'elephant' 'clock' 'chair'
  'cat' 'car' 'boat' 'bicycle' 'bear' 'airplane' 'bottle' 'dog']
 ['bird' 'truck' 'oven' 'knife' 'keyboard' 'elephant' 'clock' 'chair'
  'cat' 'car' 'bottle' 'boat' 'bicycle' 'bear' 'airplane' 'dog']]",airplane,NaN,airplane4-dog2.png
xception,1,14,NaN,"[['bird' 'dog' 'bottle' 'truck' 'oven' 'knife' 'keyboard' 'elephant'
  'clock' 'chair' 'cat' 'car' 'boat' 'bicycle' 'bear' 'airplane']
 ['truck' 'oven' 'knife' 'keyboard' 'elephant' 'clock' 'chair' 'cat'
  'car' 'bottle' 'boat' 'bird' 'bicycle' 'bear' 'airplane' 'dog']
 ['bird' 'bottle' 'cat' 'boat' 'truck' 'oven' 'knife' 'keyboard'
  'elephant' 'dog' 'clock' 'chair' 'car' 'bicycle' 'bear' 'airplane']
 ['bird' 'truck' 'oven' 'knife' 'keyboard' 'elephant' 'clock' 'chair'
  'cat' 'car' 'boat' 'bicycle' 'bear' 'airplane' 'dog' 'bottle']
 ['dog' 'boat' 'truck' 'oven' 'knife' 'keyboard' 'elephant' 'clock'
  'chair' 'cat' 'car' 'bottle' 'bird' 'bicycle' 'bear' 'airplane']
 ['cat' 'bottle' 'bird' 'truck' 'oven' 'knife' 'keyboard' 'elephant'
  'chair' 'boat' 'bicycle' 'bear' 'airplane' 'clock' 'car' 'dog']
 ['truck' 'oven' 'knife' 'keyboard' 'elephant' 'clock' 'chair' 'cat'
  'car' 'boat' 'bird' 'bicycle' 'bear' 'airplane' 'dog' 'bottle']
 ['bottle' 'bird' 'truck' 'oven' 'knife' 'keyboard' 'elephant' 'clock'
  'chair' 'cat' 'car' 'boat' 'bicycle' 'bear' 'airplane' 'dog']
 ['bird' 'cat' 'bottle' 'truck' 'oven' 'knife' 'keyboard' 'elephant'
  'chair' 'boat' 'bicycle' 'bear' 'airplane' 'dog' 'clock' 'car']
 ['bird' 'dog' 'boat' 'truck' 'oven' 'knife' 'keyboard' 'elephant'
  'clock' 'chair' 'cat' 'car' 'bottle' 'bicycle' 'bear' 'airplane']
 ['truck' 'oven' 'knife' 'keyboard' 'elephant' 'clock' 'chair' 'cat'
  'car' 'boat' 'bird' 'bicycle' 'bear' 'airplane' 'bottle' 'dog']
 ['bird' 'clock' 'car' 'truck' 'oven' 'knife' 'keyboard' 'elephant' 'dog'
  'chair' 'boat' 'bicycle' 'bear' 'airplane' 'cat' 'bottle']
 ['bird' 'clock' 'car' 'truck' 'oven' 'knife' 'keyboard' 'elephant'
  'chair' 'boat' 'bicycle' 'bear' 'airplane' 'cat' 'bottle' 'dog']
 ['bird' 'dog' 'bottle' 'truck' 'oven' 'knife' 'keyboard' 'elephant'
  'clock' 'chair' 'cat' 'car' 'boat' 'bicycle' 'bear' 'airplane']
 ['bird' 'truck' 'oven' 'knife' 'keyboard' 'elephant' 'clock' 'chair'
  'cat' 'car' 'bottle' 'bicycle' 'bear' 'airplane' 'boat' 'dog']
 ['truck' 'oven' 'knife' 'keyboard' 'elephant' 'dog' 'clock' 'chair'
  'cat' 'car' 'bottle' 'bird' 'bicycle' 'bear' 'airplane' 'boat']
 ['bird' 'dog' 'truck' 'oven' 'knife' 'keyboard' 'elephant' 'clock'
  'chair' 'cat' 'car' 'boat' 'bicycle' 'bear' 'airplane' 'bottle']
 ['bird' 'cat' 'bottle' 'truck' 'oven' 'knife' 'keyboard' 'elephant'
  'chair' 'boat' 'bicycle' 'bear' 'airplane' 'clock' 'car' 'dog']
 ['bird' 'dog' 'clock' 'car' 'truck' 'oven' 'knife' 'keyboard' 'elephant'
  'chair' 'boat' 'bicycle' 'bear' 'airplane' 'cat' 'bottle']
 ['dog' 'clock' 'car' 'truck' 'oven' 'knife' 'keyboard' 'elephant'
  'chair' 'boat' 'bicycle' 'bear' 'airplane' 'cat' 'bottle' 'bird']
 ['bird' 'truck' 'oven' 'knife' 'keyboard' 'elephant' 'clock' 'chair'
  'car' 'bicycle' 'bear' 'airplane' 'cat' 'boat' 'dog' 'bottle']
 ['bird' 'truck' 'oven' 'knife' 'keyboard' 'elephant' 'clock' 'chair'
  'cat' 'car' 'boat' 'bicycle' 'bear' 'airplane' 'bottle' 'dog']
 ['cat' 'bottle' 'truck' 'oven' 'knife' 'keyboard' 'elephant' 'dog'
  'chair' 'boat' 'bird' 'bicycle' 'bear' 'airplane' 'clock' 'car']
 ['bird' 'cat' 'bottle' 'truck' 'oven' 'knife' 'keyboard' 'elephant'
  'chair' 'boat' 'bicycle' 'bear' 'airplane' 'clock' 'car' 'dog']
 ['bird' 'boat' 'truck' 'oven' 'knife' 'keyboard' 'elephant' 'dog'
  'clock' 'chair' 'cat' 'car' 'bottle' 'bicycle' 'bear' 'airplane']
 ['bird' 'dog' 'boat' 'truck' 'oven' 'knife' 'keyboard' 'elephant'
  'clock' 'chair' 'cat' 'car' 'bottle' 'bicycle' 'bear' 'airplane']
 ['bird' 'dog' 'clock' 'car' 'truck' 'oven' 'knife' 'keyboard' 'elephant'
  'chair' 'boat' 'bicycle' 'bear' 'airplane' 'cat' 'bottle']
 ['bird' 'dog' 'boat' 'truck' 'oven' 'knife' 'keyboard' 'elephant'
  'clock' 'chair' 'cat' 'car' 'bottle' 'bicycle' 'bear' 'airplane']
 ['bird' 'truck' 'oven' 'knife' 'keyboard' 'elephant' 'clock' 'chair'
  'cat' 'car' 'bottle' 'boat' 'bicycle' 'bear' 'airplane' 'dog']
 ['truck' 'oven' 'knife' 'keyboard' 'elephant' 'clock' 'chair' 'cat'
  'car' 'bottle' 'bird' 'bicycle' 'bear' 'airplane' 'boat' 'dog']
 ['bird' 'dog' 'clock' 'car' 'truck' 'oven' 'knife' 'keyboard' 'elephant'
  'chair' 'boat' 'bicycle' 'bear' 'airplane' 'cat' 'bottle']
 ['bird' 'dog' 'truck' 'oven' 'knife' 'keyboard' 'elephant' 'clock'
  'chair' 'cat' 'car' 'bottle' 'boat' 'bicycle' 'bear' 'airplane']]",airplane,NaN,airplane4-elephant1.png
xception,1,15,NaN,"[['truck' 'oven' 'knife' 'keyboard' 'elephant' 'dog' 'clock' 'chair'
  'cat' 'car' 'bottle' 'boat' 'bird' 'bicycle' 'bear' 'airplane']
 ['truck' 'oven' 'knife' 'keyboard' 'elephant' 'dog' 'clock' 'chair'
  'cat' 'car' 'bottle' 'boat' 'bird' 'bicycle' 'bear' 'airplane']
 ['truck' 'oven' 'knife' 'keyboard' 'elephant' 'dog' 'clock' 'chair'
  'cat' 'car' 'bottle' 'boat' 'bird' 'bicycle' 'bear' 'airplane']
 ['truck' 'oven' 'knife' 'keyboard' 'elephant' 'dog' 'clock' 'chair'
  'cat' 'car' 'bottle' 'boat' 'bird' 'bicycle' 'bear' 'airplane']
 ['truck' 'oven' 'knife' 'keyboard' 'elephant' 'dog' 'clock' 'chair'
  'cat' 'car' 'bottle' 'boat' 'bird' 'bicycle' 'bear' 'airplane']
 ['truck' 'oven' 'knife' 'keyboard' 'elephant' 'dog' 'clock' 'chair'
  'cat' 'car' 'bottle' 'boat' 'bird' 'bicycle' 'bear' 'airplane']
 ['truck' 'oven' 'knife' 'keyboard' 'elephant' 'dog' 'clock' 'chair'
  'cat' 'car' 'bottle' 'boat' 'bird' 'bicycle' 'bear' 'airplane']
 ['truck' 'oven' 'knife' 'keyboard' 'elephant' 'dog' 'clock' 'chair'
  'cat' 'car' 'bottle' 'boat' 'bird' 'bicycle' 'bear' 'airplane']
 ['truck' 'oven' 'knife' 'keyboard' 'elephant' 'dog' 'clock' 'chair'
  'cat' 'car' 'bottle' 'boat' 'bird' 'bicycle' 'bear' 'airplane']
 ['dog' 'truck' 'oven' 'knife' 'keyboard' 'elephant' 'clock' 'chair'
  'cat' 'car' 'boat' 'bicycle' 'bear' 'airplane' 'bottle' 'bird']
 ['truck' 'oven' 'knife' 'keyboard' 'elephant' 'dog' 'clock' 'chair'
  'cat' 'car' 'bottle' 'boat' 'bird' 'bicycle' 'bear' 'airplane']
 ['truck' 'oven' 'knife' 'keyboard' 'elephant' 'dog' 'clock' 'chair'
  'cat' 'car' 'bottle' 'boat' 'bird' 'bicycle' 'bear' 'airplane']
 ['truck' 'oven' 'knife' 'keyboard' 'elephant' 'dog' 'clock' 'chair'
  'cat' 'car' 'bottle' 'boat' 'bird' 'bicycle' 'bear' 'airplane']
 ['dog' 'truck' 'oven' 'knife' 'keyboard' 'elephant' 'clock' 'chair'
  'cat' 'car' 'bottle' 'boat' 'bird' 'bicycle' 'bear' 'airplane']
 ['truck' 'oven' 'knife' 'keyboard' 'elephant' 'dog' 'clock' 'chair'
  'cat' 'car' 'bottle' 'boat' 'bird' 'bicycle' 'bear' 'airplane']
 ['truck' 'oven' 'knife' 'keyboard' 'elephant' 'dog' 'clock' 'chair'
  'cat' 'car' 'bottle' 'boat' 'bird' 'bicycle' 'bear' 'airplane']
 ['truck' 'oven' 'knife' 'keyboard' 'elephant' 'dog' 'clock' 'chair'
  'cat' 'car' 'bottle' 'boat' 'bird' 'bicycle' 'bear' 'airplane']
 ['truck' 'oven' 'knife' 'keyboard' 'elephant' 'dog' 'clock' 'chair'
  'cat' 'car' 'bottle' 'boat' 'bird' 'bicycle' 'bear' 'airplane']
 ['truck' 'oven' 'knife' 'keyboard' 'elephant' 'dog' 'clock' 'chair'
  'cat' 'car' 'bottle' 'boat' 'bird' 'bicycle' 'bear' 'airplane']
 ['truck' 'oven' 'knife' 'keyboard' 'elephant' 'dog' 'clock' 'chair'
  'cat' 'car' 'bottle' 'boat' 'bird' 'bicycle' 'bear' 'airplane']
 ['truck' 'oven' 'knife' 'keyboard' 'elephant' 'dog' 'clock' 'chair'
  'cat' 'car' 'bottle' 'boat' 'bird' 'bicycle' 'bear' 'airplane']
 ['truck' 'oven' 'knife' 'keyboard' 'elephant' 'dog' 'clock' 'chair'
  'cat' 'car' 'bottle' 'boat' 'bird' 'bicycle' 'bear' 'airplane']
 ['truck' 'oven' 'knife' 'keyboard' 'elephant' 'dog' 'clock' 'chair'
  'cat' 'car' 'bottle' 'boat' 'bird' 'bicycle' 'bear' 'airplane']
 ['truck' 'oven' 'knife' 'keyboard' 'elephant' 'dog' 'clock' 'chair'
  'cat' 'car' 'bottle' 'boat' 'bird' 'bicycle' 'bear' 'airplane']
 ['truck' 'oven' 'knife' 'keyboard' 'elephant' 'dog' 'clock' 'chair'
  'cat' 'car' 'bottle' 'boat' 'bird' 'bicycle' 'bear' 'airplane']
 ['truck' 'oven' 'knife' 'keyboard' 'elephant' 'dog' 'clock' 'chair'
  'cat' 'car' 'bottle' 'boat' 'bird' 'bicycle' 'bear' 'airplane']
 ['truck' 'oven' 'knife' 'keyboard' 'elephant' 'dog' 'clock' 'chair'
  'cat' 'car' 'bottle' 'boat' 'bird' 'bicycle' 'bear' 'airplane']
 ['truck' 'oven' 'knife' 'keyboard' 'elephant' 'dog' 'clock' 'chair'
  'cat' 'car' 'bottle' 'boat' 'bird' 'bicycle' 'bear' 'airplane']
 ['truck' 'oven' 'knife' 'keyboard' 'elephant' 'dog' 'clock' 'chair'
  'cat' 'car' 'bottle' 'boat' 'bird' 'bicycle' 'bear' 'airplane']
 ['truck' 'oven' 'knife' 'keyboard' 'elephant' 'dog' 'clock' 'chair'
  'cat' 'car' 'bottle' 'boat' 'bird' 'bicycle' 'bear' 'airplane']
 ['truck' 'oven' 'knife' 'keyboard' 'elephant' 'dog' 'clock' 'chair'
  'cat' 'car' 'bottle' 'boat' 'bird' 'bicycle' 'bear' 'airplane']
 ['truck' 'oven' 'knife' 'keyboard' 'elephant' 'dog' 'clock' 'chair'
  'cat' 'car' 'bottle' 'boat' 'bird' 'bicycle' 'bear' 'airplane']]",airplane,NaN,airplane7-truck1.png
xception,1,16,NaN,"[['bird' 'dog' 'cat' 'bottle' 'truck' 'oven' 'knife' 'keyboard'
  'elephant' 'chair' 'boat' 'bicycle' 'bear' 'airplane' 'clock' 'car']
 ['bird' 'dog' 'cat' 'bottle' 'truck' 'oven' 'knife' 'keyboard'
  'elephant' 'chair' 'boat' 'bicycle' 'bear' 'airplane' 'clock' 'car']
 ['dog' 'boat' 'truck' 'oven' 'knife' 'keyboard' 'elephant' 'clock'
  'chair' 'cat' 'car' 'bottle' 'bird' 'bicycle' 'bear' 'airplane']
 ['bird' 'truck' 'oven' 'knife' 'keyboard' 'elephant' 'clock' 'chair'
  'cat' 'car' 'boat' 'bicycle' 'bear' 'airplane' 'bottle' 'dog']
 ['bird' 'dog' 'truck' 'oven' 'knife' 'keyboard' 'elephant' 'clock'
  'chair' 'cat' 'car' 'bottle' 'boat' 'bicycle' 'bear' 'airplane']
 ['bird' 'truck' 'oven' 'knife' 'keyboard' 'elephant' 'clock' 'chair'
  'cat' 'car' 'bottle' 'boat' 'bicycle' 'bear' 'airplane' 'dog']
 ['bird' 'dog' 'cat' 'bottle' 'truck' 'oven' 'knife' 'keyboard'
  'elephant' 'chair' 'boat' 'bicycle' 'bear' 'airplane' 'clock' 'car']
 ['bird' 'cat' 'bottle' 'truck' 'oven' 'knife' 'keyboard' 'elephant'
  'chair' 'boat' 'bicycle' 'bear' 'airplane' 'dog' 'clock' 'car']
 ['bird' 'dog' 'truck' 'oven' 'knife' 'keyboard' 'elephant' 'clock'
  'chair' 'cat' 'car' 'bottle' 'boat' 'bicycle' 'bear' 'airplane']
 ['bird' 'cat' 'bottle' 'truck' 'oven' 'knife' 'keyboard' 'elephant'
  'chair' 'boat' 'bicycle' 'bear' 'airplane' 'clock' 'car' 'dog']
 ['bird' 'dog' 'bottle' 'truck' 'oven' 'knife' 'keyboard' 'elephant'
  'clock' 'chair' 'cat' 'car' 'boat' 'bicycle' 'bear' 'airplane']
 ['bird' 'truck' 'oven' 'knife' 'keyboard' 'elephant' 'clock' 'chair'
  'cat' 'car' 'bottle' 'bicycle' 'bear' 'airplane' 'dog' 'boat']
 ['dog' 'clock' 'car' 'truck' 'oven' 'knife' 'keyboard' 'elephant'
  'chair' 'boat' 'bicycle' 'bear' 'airplane' 'cat' 'bottle' 'bird']
 ['bird' 'dog' 'bottle' 'truck' 'oven' 'knife' 'keyboard' 'elephant'
  'clock' 'chair' 'cat' 'car' 'boat' 'bicycle' 'bear' 'airplane']
 ['bird' 'dog' 'cat' 'bottle' 'truck' 'oven' 'knife' 'keyboard'
  'elephant' 'chair' 'boat' 'bicycle' 'bear' 'airplane' 'clock' 'car']
 ['bird' 'bottle' 'truck' 'oven' 'knife' 'keyboard' 'elephant' 'clock'
  'chair' 'cat' 'car' 'boat' 'bicycle' 'bear' 'airplane' 'dog']
 ['dog' 'truck' 'oven' 'knife' 'keyboard' 'elephant' 'clock' 'chair'
  'cat' 'car' 'boat' 'bird' 'bicycle' 'bear' 'airplane' 'bottle']
 ['clock' 'car' 'truck' 'oven' 'knife' 'keyboard' 'elephant' 'chair'
  'boat' 'bicycle' 'bear' 'airplane' 'cat' 'bottle' 'bird' 'dog']
 ['bird' 'truck' 'oven' 'knife' 'keyboard' 'elephant' 'clock' 'chair'
  'car' 'bicycle' 'bear' 'airplane' 'cat' 'boat' 'bottle' 'dog']
 ['bird' 'truck' 'oven' 'knife' 'keyboard' 'elephant' 'clock' 'chair'
  'cat' 'car' 'bottle' 'bicycle' 'bear' 'airplane' 'boat' 'dog']
 ['bird' 'dog' 'boat' 'truck' 'oven' 'knife' 'keyboard' 'elephant'
  'clock' 'chair' 'cat' 'car' 'bottle' 'bicycle' 'bear' 'airplane']
 ['bird' 'dog' 'bottle' 'cat' 'boat' 'truck' 'oven' 'knife' 'keyboard'
  'elephant' 'clock' 'chair' 'car' 'bicycle' 'bear' 'airplane']
 ['truck' 'oven' 'knife' 'keyboard' 'elephant' 'clock' 'chair' 'car'
  'bicycle' 'bear' 'airplane' 'cat' 'boat' 'bird' 'dog' 'bottle']
 ['bottle' 'bird' 'truck' 'oven' 'knife' 'keyboard' 'elephant' 'clock'
  'chair' 'cat' 'car' 'boat' 'bicycle' 'bear' 'airplane' 'dog']
 ['bird' 'truck' 'oven' 'knife' 'keyboard' 'elephant' 'dog' 'clock'
  'chair' 'cat' 'car' 'boat' 'bicycle' 'bear' 'airplane' 'bottle']
 ['bird' 'dog' 'boat' 'truck' 'oven' 'knife' 'keyboard' 'elephant'
  'clock' 'chair' 'cat' 'car' 'bottle' 'bicycle' 'bear' 'airplane']
 ['bird' 'dog' 'truck' 'oven' 'knife' 'keyboard' 'elephant' 'clock'
  'chair' 'cat' 'car' 'bottle' 'boat' 'bicycle' 'bear' 'airplane']
 ['bird' 'truck' 'oven' 'knife' 'keyboard' 'elephant' 'clock' 'chair'
  'cat' 'car' 'boat' 'bicycle' 'bear' 'airplane' 'bottle' 'dog']
 ['bird' 'truck' 'oven' 'knife' 'keyboard' 'elephant' 'clock' 'chair'
  'car' 'bicycle' 'bear' 'airplane' 'cat' 'boat' 'bottle' 'dog']
 ['bottle' 'truck' 'oven' 'knife' 'keyboard' 'elephant' 'clock' 'chair'
  'cat' 'car' 'boat' 'bird' 'bicycle' 'bear' 'airplane' 'dog']
 ['bird' 'dog' 'truck' 'oven' 'knife' 'keyboard' 'elephant' 'clock'
  'chair' 'cat' 'car' 'bottle' 'bicycle' 'bear' 'airplane' 'boat']
 ['bird' 'clock' 'car' 'truck' 'oven' 'knife' 'keyboard' 'elephant'
  'chair' 'boat' 'bicycle' 'bear' 'airplane' 'dog' 'cat' 'bottle']]",airplane,NaN,airplane8-bicycle3.png
xception,1,17,NaN,"[['bird' 'dog' 'boat' 'truck' 'oven' 'knife' 'keyboard' 'elephant'
  'clock' 'chair' 'cat' 'car' 'bottle' 'bicycle' 'bear' 'airplane']
 ['bird' 'truck' 'oven' 'knife' 'keyboard' 'elephant' 'clock' 'chair'
  'cat' 'car' 'boat' 'bicycle' 'bear' 'airplane' 'dog' 'bottle']
 ['bird' 'truck' 'oven' 'knife' 'keyboard' 'elephant' 'clock' 'chair'
  'cat' 'car' 'bottle' 'bicycle' 'bear' 'airplane' 'boat' 'dog']
 ['bird' 'dog' 'cat' 'bottle' 'truck' 'oven' 'knife' 'keyboard'
  'elephant' 'chair' 'boat' 'bicycle' 'bear' 'airplane' 'clock' 'car']
 ['bird' 'dog' 'boat' 'truck' 'oven' 'knife' 'keyboard' 'elephant'
  'clock' 'chair' 'cat' 'car' 'bottle' 'bicycle' 'bear' 'airplane']
 ['bird' 'dog' 'truck' 'oven' 'knife' 'keyboard' 'elephant' 'clock'
  'chair' 'cat' 'car' 'boat' 'bicycle' 'bear' 'airplane' 'bottle']
 ['bird' 'dog' 'boat' 'truck' 'oven' 'knife' 'keyboard' 'elephant'
  'clock' 'chair' 'cat' 'car' 'bottle' 'bicycle' 'bear' 'airplane']
 ['bird' 'dog' 'clock' 'car' 'truck' 'oven' 'knife' 'keyboard' 'elephant'
  'chair' 'boat' 'bicycle' 'bear' 'airplane' 'cat' 'bottle']
 ['bird' 'dog' 'truck' 'oven' 'knife' 'keyboard' 'elephant' 'clock'
  'chair' 'cat' 'car' 'bottle' 'boat' 'bicycle' 'bear' 'airplane']
 ['bird' 'dog' 'bottle' 'cat' 'boat' 'truck' 'oven' 'knife' 'keyboard'
  'elephant' 'clock' 'chair' 'car' 'bicycle' 'bear' 'airplane']
 ['bird' 'cat' 'bottle' 'truck' 'oven' 'knife' 'keyboard' 'elephant'
  'chair' 'boat' 'bicycle' 'bear' 'airplane' 'clock' 'car' 'dog']
 ['bird' 'cat' 'bottle' 'truck' 'oven' 'knife' 'keyboard' 'elephant'
  'chair' 'boat' 'bicycle' 'bear' 'airplane' 'clock' 'car' 'dog']
 ['bird' 'truck' 'oven' 'knife' 'keyboard' 'elephant' 'clock' 'chair'
  'cat' 'car' 'bottle' 'bicycle' 'bear' 'airplane' 'boat' 'dog']
 ['bird' 'clock' 'car' 'truck' 'oven' 'knife' 'keyboard' 'elephant'
  'chair' 'boat' 'bicycle' 'bear' 'airplane' 'cat' 'bottle' 'dog']
 ['bird' 'dog' 'truck' 'oven' 'knife' 'keyboard' 'elephant' 'clock'
  'chair' 'cat' 'car' 'bottle' 'boat' 'bicycle' 'bear' 'airplane']
 ['bird' 'truck' 'oven' 'knife' 'keyboard' 'elephant' 'clock' 'chair'
  'cat' 'car' 'bottle' 'boat' 'bicycle' 'bear' 'airplane' 'dog']
 ['bird' 'dog' 'cat' 'bottle' 'truck' 'oven' 'knife' 'keyboard'
  'elephant' 'chair' 'boat' 'bicycle' 'bear' 'airplane' 'clock' 'car']
 ['bird' 'truck' 'oven' 'knife' 'keyboard' 'elephant' 'clock' 'chair'
  'cat' 'car' 'boat' 'bicycle' 'bear' 'airplane' 'dog' 'bottle']
 ['bird' 'dog' 'truck' 'oven' 'knife' 'keyboard' 'elephant' 'clock'
  'chair' 'cat' 'car' 'bottle' 'boat' 'bicycle' 'bear' 'airplane']
 ['bird' 'bottle' 'truck' 'oven' 'knife' 'keyboard' 'elephant' 'dog'
  'clock' 'chair' 'cat' 'car' 'boat' 'bicycle' 'bear' 'airplane']
 ['bird' 'boat' 'truck' 'oven' 'knife' 'keyboard' 'elephant' 'clock'
  'chair' 'cat' 'car' 'bottle' 'bicycle' 'bear' 'airplane' 'dog']
 ['bird' 'truck' 'oven' 'knife' 'keyboard' 'elephant' 'dog' 'clock'
  'chair' 'cat' 'car' 'bottle' 'boat' 'bicycle' 'bear' 'airplane']
 ['bird' 'truck' 'oven' 'knife' 'keyboard' 'elephant' 'dog' 'clock'
  'chair' 'cat' 'car' 'bottle' 'boat' 'bicycle' 'bear' 'airplane']
 ['bird' 'dog' 'boat' 'truck' 'oven' 'knife' 'keyboard' 'elephant'
  'clock' 'chair' 'cat' 'car' 'bottle' 'bicycle' 'bear' 'airplane']
 ['bird' 'truck' 'oven' 'knife' 'keyboard' 'elephant' 'dog' 'clock'
  'chair' 'cat' 'car' 'bottle' 'bicycle' 'bear' 'airplane' 'boat']
 ['bird' 'truck' 'oven' 'knife' 'keyboard' 'elephant' 'clock' 'chair'
  'cat' 'car' 'bottle' 'boat' 'bicycle' 'bear' 'airplane' 'dog']
 ['bird' 'dog' 'cat' 'bottle' 'truck' 'oven' 'knife' 'keyboard'
  'elephant' 'chair' 'boat' 'bicycle' 'bear' 'airplane' 'clock' 'car']
 ['bird' 'truck' 'oven' 'knife' 'keyboard' 'elephant' 'dog' 'clock'
  'chair' 'cat' 'car' 'boat' 'bicycle' 'bear' 'airplane' 'bottle']
 ['bird' 'truck' 'oven' 'knife' 'keyboard' 'elephant' 'clock' 'chair'
  'car' 'bicycle' 'bear' 'airplane' 'cat' 'boat' 'dog' 'bottle']
 ['bird' 'truck' 'oven' 'knife' 'keyboard' 'elephant' 'dog' 'clock'
  'chair' 'cat' 'car' 'bottle' 'boat' 'bicycle' 'bear' 'airplane']
 ['bird' 'truck' 'oven' 'knife' 'keyboard' 'elephant' 'clock' 'chair'
  'car' 'bicycle' 'bear' 'airplane' 'cat' 'boat' 'bottle' 'dog']
 ['bird' 'truck' 'oven' 'knife' 'keyboard' 'elephant' 'clock' 'chair'
  'car' 'bicycle' 'bear' 'airplane' 'cat' 'boat' 'bottle' 'dog']]",airplane,NaN,airplane8-bird1.png
xception,1,18,NaN,"[['bird' 'dog' 'truck' 'oven' 'knife' 'keyboard' 'elephant' 'clock'
  'chair' 'cat' 'car' 'bottle' 'bicycle' 'bear' 'airplane' 'boat']
 ['bird' 'truck' 'oven' 'knife' 'keyboard' 'elephant' 'clock' 'chair'
  'cat' 'car' 'bottle' 'bicycle' 'bear' 'airplane' 'boat' 'dog']
 ['bird' 'dog' 'bottle' 'truck' 'oven' 'knife' 'keyboard' 'elephant'
  'clock' 'chair' 'cat' 'car' 'boat' 'bicycle' 'bear' 'airplane']
 ['bird' 'cat' 'bottle' 'truck' 'oven' 'knife' 'keyboard' 'elephant'
  'chair' 'boat' 'bicycle' 'bear' 'airplane' 'clock' 'car' 'dog']
 ['bird' 'truck' 'oven' 'knife' 'keyboard' 'elephant' 'clock' 'chair'
  'cat' 'car' 'bottle' 'boat' 'bicycle' 'bear' 'airplane' 'dog']
 ['bird' 'dog' 'bottle' 'truck' 'oven' 'knife' 'keyboard' 'elephant'
  'clock' 'chair' 'cat' 'car' 'boat' 'bicycle' 'bear' 'airplane']
 ['bird' 'bottle' 'truck' 'oven' 'knife' 'keyboard' 'elephant' 'clock'
  'chair' 'cat' 'car' 'boat' 'bicycle' 'bear' 'airplane' 'dog']
 ['bird' 'truck' 'oven' 'knife' 'keyboard' 'elephant' 'clock' 'chair'
  'cat' 'car' 'bottle' 'boat' 'bicycle' 'bear' 'airplane' 'dog']
 ['bird' 'keyboard' 'boat' 'truck' 'oven' 'knife' 'elephant' 'clock'
  'chair' 'cat' 'car' 'bottle' 'bicycle' 'bear' 'airplane' 'dog']
 ['bird' 'clock' 'car' 'truck' 'oven' 'knife' 'keyboard' 'elephant'
  'chair' 'boat' 'bicycle' 'bear' 'airplane' 'cat' 'bottle' 'dog']
 ['bird' 'dog' 'boat' 'truck' 'oven' 'knife' 'keyboard' 'elephant'
  'clock' 'chair' 'cat' 'car' 'bottle' 'bicycle' 'bear' 'airplane']
 ['bird' 'dog' 'bottle' 'truck' 'oven' 'knife' 'keyboard' 'elephant'
  'clock' 'chair' 'cat' 'car' 'boat' 'bicycle' 'bear' 'airplane']
 ['bird' 'truck' 'oven' 'knife' 'keyboard' 'elephant' 'clock' 'chair'
  'cat' 'car' 'bottle' 'bicycle' 'bear' 'airplane' 'dog' 'boat']
 ['bird' 'truck' 'oven' 'knife' 'keyboard' 'elephant' 'clock' 'chair'
  'car' 'bicycle' 'bear' 'airplane' 'cat' 'boat' 'dog' 'bottle']
 ['bird' 'dog' 'truck' 'oven' 'knife' 'keyboard' 'elephant' 'clock'
  'chair' 'cat' 'car' 'bottle' 'bicycle' 'bear' 'airplane' 'boat']
 ['bird' 'dog' 'bottle' 'truck' 'oven' 'knife' 'keyboard' 'elephant'
  'clock' 'chair' 'cat' 'car' 'boat' 'bicycle' 'bear' 'airplane']
 ['bird' 'dog' 'truck' 'oven' 'knife' 'keyboard' 'elephant' 'clock'
  'chair' 'cat' 'car' 'bottle' 'boat' 'bicycle' 'bear' 'airplane']
 ['bird' 'truck' 'oven' 'knife' 'keyboard' 'elephant' 'clock' 'chair'
  'cat' 'car' 'bottle' 'bicycle' 'bear' 'airplane' 'boat' 'dog']
 ['bird' 'dog' 'cat' 'bottle' 'truck' 'oven' 'knife' 'keyboard'
  'elephant' 'chair' 'boat' 'bicycle' 'bear' 'airplane' 'clock' 'car']
 ['bird' 'cat' 'bottle' 'truck' 'oven' 'knife' 'keyboard' 'elephant'
  'dog' 'chair' 'boat' 'bicycle' 'bear' 'airplane' 'clock' 'car']
 ['bird' 'dog' 'truck' 'oven' 'knife' 'keyboard' 'elephant' 'clock'
  'chair' 'cat' 'car' 'boat' 'bicycle' 'bear' 'airplane' 'bottle']
 ['bird' 'bottle' 'truck' 'oven' 'knife' 'keyboard' 'elephant' 'clock'
  'chair' 'cat' 'car' 'boat' 'bicycle' 'bear' 'airplane' 'dog']
 ['bird' 'truck' 'oven' 'knife' 'keyboard' 'elephant' 'clock' 'chair'
  'cat' 'car' 'bottle' 'bicycle' 'bear' 'airplane' 'boat' 'dog']
 ['bird' 'dog' 'boat' 'truck' 'oven' 'knife' 'keyboard' 'elephant'
  'clock' 'chair' 'cat' 'car' 'bottle' 'bicycle' 'bear' 'airplane']
 ['bird' 'truck' 'oven' 'knife' 'keyboard' 'elephant' 'dog' 'clock'
  'chair' 'cat' 'car' 'boat' 'bicycle' 'bear' 'airplane' 'bottle']
 ['bird' 'dog' 'truck' 'oven' 'knife' 'keyboard' 'elephant' 'clock'
  'chair' 'cat' 'car' 'bottle' 'bicycle' 'bear' 'airplane' 'boat']
 ['bird' 'dog' 'boat' 'truck' 'oven' 'knife' 'keyboard' 'elephant'
  'clock' 'chair' 'cat' 'car' 'bottle' 'bicycle' 'bear' 'airplane']
 ['bird' 'dog' 'truck' 'oven' 'knife' 'keyboard' 'elephant' 'clock'
  'chair' 'cat' 'car' 'bottle' 'bicycle' 'bear' 'airplane' 'boat']
 ['bird' 'dog' 'truck' 'oven' 'knife' 'keyboard' 'elephant' 'clock'
  'chair' 'cat' 'car' 'bottle' 'bicycle' 'bear' 'airplane' 'boat']
 ['bird' 'dog' 'truck' 'oven' 'knife' 'keyboard' 'elephant' 'clock'
  'chair' 'cat' 'car' 'bottle' 'boat' 'bicycle' 'bear' 'airplane']
 ['bird' 'dog' 'truck' 'oven' 'knife' 'keyboard' 'elephant' 'clock'
  'chair' 'cat' 'car' 'bottle' 'boat' 'bicycle' 'bear' 'airplane']
 ['bird' 'truck' 'oven' 'knife' 'keyboard' 'elephant' 'clock' 'chair'
  'car' 'bicycle' 'bear' 'airplane' 'cat' 'boat' 'bottle' 'dog']]",airplane,NaN,airplane8-chair1.png
xception,1,19,NaN,"[['bird' 'dog' 'boat' 'truck' 'oven' 'knife' 'keyboard' 'elephant'
  'clock' 'chair' 'cat' 'car' 'bottle' 'bicycle' 'bear' 'airplane']
 ['bird' 'bottle' 'truck' 'oven' 'knife' 'keyboard' 'elephant' 'clock'
  'chair' 'cat' 'car' 'boat' 'bicycle' 'bear' 'airplane' 'dog']
 ['bird' 'clock' 'car' 'truck' 'oven' 'knife' 'keyboard' 'elephant'
  'chair' 'boat' 'bicycle' 'bear' 'airplane' 'cat' 'bottle' 'dog']
 ['bird' 'truck' 'oven' 'knife' 'keyboard' 'elephant' 'clock' 'chair'
  'cat' 'car' 'boat' 'bicycle' 'bear' 'airplane' 'bottle' 'dog']
 ['bird' 'truck' 'oven' 'knife' 'keyboard' 'elephant' 'clock' 'chair'
  'cat' 'car' 'bottle' 'boat' 'bicycle' 'bear' 'airplane' 'dog']
 ['bird' 'dog' 'clock' 'car' 'truck' 'oven' 'knife' 'keyboard' 'elephant'
  'chair' 'boat' 'bicycle' 'bear' 'airplane' 'cat' 'bottle']
 ['bird' 'bottle' 'cat' 'boat' 'truck' 'oven' 'knife' 'keyboard'
  'elephant' 'dog' 'clock' 'chair' 'car' 'bicycle' 'bear' 'airplane']
 ['bird' 'truck' 'oven' 'knife' 'keyboard' 'elephant' 'clock' 'chair'
  'cat' 'car' 'bottle' 'bicycle' 'bear' 'airplane' 'boat' 'dog']
 ['bird' 'truck' 'oven' 'knife' 'keyboard' 'elephant' 'dog' 'clock'
  'chair' 'cat' 'car' 'bottle' 'bicycle' 'bear' 'airplane' 'boat']
 ['bird' 'dog' 'boat' 'truck' 'oven' 'knife' 'keyboard' 'elephant'
  'clock' 'chair' 'cat' 'car' 'bottle' 'bicycle' 'bear' 'airplane']
 ['bird' 'truck' 'oven' 'knife' 'keyboard' 'elephant' 'clock' 'chair'
  'car' 'bicycle' 'bear' 'airplane' 'cat' 'boat' 'bottle' 'dog']
 ['bird' 'dog' 'bottle' 'truck' 'oven' 'knife' 'keyboard' 'elephant'
  'clock' 'chair' 'cat' 'car' 'boat' 'bicycle' 'bear' 'airplane']
 ['bird' 'truck' 'oven' 'knife' 'keyboard' 'elephant' 'clock' 'chair'
  'cat' 'car' 'boat' 'bicycle' 'bear' 'airplane' 'dog' 'bottle']
 ['bird' 'truck' 'oven' 'knife' 'keyboard' 'elephant' 'clock' 'chair'
  'cat' 'car' 'boat' 'bicycle' 'bear' 'airplane' 'bottle' 'dog']
 ['bird' 'truck' 'oven' 'knife' 'keyboard' 'elephant' 'clock' 'chair'
  'car' 'bicycle' 'bear' 'airplane' 'cat' 'boat' 'dog' 'bottle']
 ['bird' 'truck' 'oven' 'knife' 'keyboard' 'elephant' 'dog' 'clock'
  'chair' 'cat' 'car' 'boat' 'bicycle' 'bear' 'airplane' 'bottle']
 ['bird' 'boat' 'truck' 'oven' 'knife' 'keyboard' 'elephant' 'clock'
  'chair' 'cat' 'car' 'bottle' 'bicycle' 'bear' 'airplane' 'dog']
 ['bird' 'truck' 'oven' 'knife' 'keyboard' 'elephant' 'clock' 'chair'
  'cat' 'car' 'bottle' 'boat' 'bicycle' 'bear' 'airplane' 'dog']
 ['bird' 'truck' 'oven' 'knife' 'keyboard' 'elephant' 'clock' 'chair'
  'cat' 'car' 'bottle' 'boat' 'bicycle' 'bear' 'airplane' 'dog']
 ['bird' 'cat' 'bottle' 'truck' 'oven' 'knife' 'keyboard' 'elephant'
  'chair' 'boat' 'bicycle' 'bear' 'airplane' 'clock' 'car' 'dog']
 ['bird' 'truck' 'oven' 'knife' 'keyboard' 'elephant' 'dog' 'clock'
  'chair' 'cat' 'car' 'boat' 'bicycle' 'bear' 'airplane' 'bottle']
 ['bird' 'truck' 'oven' 'knife' 'keyboard' 'elephant' 'clock' 'chair'
  'cat' 'car' 'bottle' 'bicycle' 'bear' 'airplane' 'boat' 'dog']
 ['bird' 'dog' 'boat' 'truck' 'oven' 'knife' 'keyboard' 'elephant'
  'clock' 'chair' 'cat' 'car' 'bottle' 'bicycle' 'bear' 'airplane']
 ['bird' 'dog' 'truck' 'oven' 'knife' 'keyboard' 'elephant' 'clock'
  'chair' 'cat' 'car' 'bottle' 'boat' 'bicycle' 'bear' 'airplane']
 ['bird' 'bottle' 'truck' 'oven' 'knife' 'keyboard' 'elephant' 'clock'
  'chair' 'cat' 'car' 'boat' 'bicycle' 'bear' 'airplane' 'dog']
 ['bird' 'truck' 'oven' 'knife' 'keyboard' 'elephant' 'clock' 'chair'
  'cat' 'car' 'boat' 'bicycle' 'bear' 'airplane' 'dog' 'bottle']
 ['bird' 'dog' 'clock' 'car' 'truck' 'oven' 'knife' 'keyboard' 'elephant'
  'chair' 'boat' 'bicycle' 'bear' 'airplane' 'cat' 'bottle']
 ['bird' 'dog' 'bottle' 'truck' 'oven' 'knife' 'keyboard' 'elephant'
  'clock' 'chair' 'cat' 'car' 'boat' 'bicycle' 'bear' 'airplane']
 ['bird' 'cat' 'bottle' 'truck' 'oven' 'knife' 'keyboard' 'elephant'
  'dog' 'chair' 'boat' 'bicycle' 'bear' 'airplane' 'clock' 'car']
 ['bird' 'truck' 'oven' 'knife' 'keyboard' 'elephant' 'clock' 'chair'
  'cat' 'car' 'boat' 'bicycle' 'bear' 'airplane' 'dog' 'bottle']
 ['bird' 'truck' 'oven' 'knife' 'keyboard' 'elephant' 'clock' 'chair'
  'cat' 'car' 'bottle' 'boat' 'bicycle' 'bear' 'airplane' 'dog']
 ['bird' 'dog' 'bottle' 'truck' 'oven' 'knife' 'keyboard' 'elephant'
  'clock' 'chair' 'cat' 'car' 'boat' 'bicycle' 'bear' 'airplane']]",airplane,NaN,airplane8-clock2.png
xception,1,20,NaN,"[['bird' 'dog' 'clock' 'car' 'truck' 'oven' 'knife' 'keyboard' 'elephant'
  'chair' 'boat' 'bicycle' 'bear' 'airplane' 'cat' 'bottle']
 ['bird' 'truck' 'oven' 'knife' 'keyboard' 'elephant' 'clock' 'chair'
  'cat' 'car' 'bottle' 'bicycle' 'bear' 'airplane' 'boat' 'dog']
 ['bird' 'boat' 'truck' 'oven' 'knife' 'keyboard' 'elephant' 'clock'
  'chair' 'cat' 'car' 'bottle' 'bicycle' 'bear' 'airplane' 'dog']
 ['bird' 'dog' 'truck' 'oven' 'knife' 'keyboard' 'elephant' 'clock'
  'chair' 'cat' 'car' 'boat' 'bicycle' 'bear' 'airplane' 'bottle']
 ['bird' 'truck' 'oven' 'knife' 'keyboard' 'elephant' 'clock' 'chair'
  'car' 'bicycle' 'bear' 'airplane' 'cat' 'boat' 'bottle' 'dog']
 ['bird' 'truck' 'oven' 'knife' 'keyboard' 'elephant' 'clock' 'chair'
  'car' 'bicycle' 'bear' 'airplane' 'cat' 'boat' 'bottle' 'dog']
 ['bird' 'dog' 'clock' 'car' 'truck' 'oven' 'knife' 'keyboard' 'elephant'
  'chair' 'boat' 'bicycle' 'bear' 'airplane' 'cat' 'bottle']
 ['bird' 'truck' 'oven' 'knife' 'keyboard' 'elephant' 'dog' 'clock'
  'chair' 'car' 'bicycle' 'bear' 'airplane' 'cat' 'boat' 'bottle']
 ['bird' 'bottle' 'dog' 'cat' 'boat' 'truck' 'oven' 'knife' 'keyboard'
  'elephant' 'clock' 'chair' 'car' 'bicycle' 'bear' 'airplane']
 ['bird' 'clock' 'car' 'truck' 'oven' 'knife' 'keyboard' 'elephant'
  'chair' 'boat' 'bicycle' 'bear' 'airplane' 'dog' 'cat' 'bottle']
 ['bird' 'truck' 'oven' 'knife' 'keyboard' 'elephant' 'dog' 'clock'
  'chair' 'cat' 'car' 'bottle' 'boat' 'bicycle' 'bear' 'airplane']
 ['bird' 'dog' 'truck' 'oven' 'knife' 'keyboard' 'elephant' 'clock'
  'chair' 'cat' 'car' 'bottle' 'bicycle' 'bear' 'airplane' 'boat']
 ['bird' 'truck' 'oven' 'knife' 'keyboard' 'elephant' 'clock' 'chair'
  'cat' 'car' 'bottle' 'boat' 'bicycle' 'bear' 'airplane' 'dog']
 ['bird' 'bottle' 'truck' 'oven' 'knife' 'keyboard' 'elephant' 'clock'
  'chair' 'cat' 'car' 'boat' 'bicycle' 'bear' 'airplane' 'dog']
 ['bird' 'dog' 'clock' 'car' 'truck' 'oven' 'knife' 'keyboard' 'elephant'
  'chair' 'boat' 'bicycle' 'bear' 'airplane' 'cat' 'bottle']
 ['bird' 'dog' 'truck' 'oven' 'knife' 'keyboard' 'elephant' 'clock'
  'chair' 'cat' 'car' 'bottle' 'bicycle' 'bear' 'airplane' 'boat']
 ['bird' 'dog' 'clock' 'car' 'truck' 'oven' 'knife' 'keyboard' 'elephant'
  'chair' 'boat' 'bicycle' 'bear' 'airplane' 'cat' 'bottle']
 ['bird' 'dog' 'truck' 'oven' 'knife' 'keyboard' 'elephant' 'clock'
  'chair' 'cat' 'car' 'bottle' 'boat' 'bicycle' 'bear' 'airplane']
 ['bird' 'truck' 'oven' 'knife' 'keyboard' 'elephant' 'clock' 'chair'
  'cat' 'car' 'bottle' 'bicycle' 'bear' 'airplane' 'boat' 'dog']
 ['bird' 'truck' 'oven' 'knife' 'keyboard' 'elephant' 'dog' 'clock'
  'chair' 'car' 'bicycle' 'bear' 'airplane' 'cat' 'boat' 'bottle']
 ['bird' 'truck' 'oven' 'knife' 'keyboard' 'elephant' 'dog' 'clock'
  'chair' 'cat' 'car' 'bottle' 'boat' 'bicycle' 'bear' 'airplane']
 ['bird' 'clock' 'car' 'truck' 'oven' 'knife' 'keyboard' 'elephant'
  'chair' 'boat' 'bicycle' 'bear' 'airplane' 'cat' 'bottle' 'dog']
 ['bird' 'cat' 'bottle' 'truck' 'oven' 'knife' 'keyboard' 'elephant'
  'chair' 'boat' 'bicycle' 'bear' 'airplane' 'clock' 'car' 'dog']
 ['bird' 'boat' 'truck' 'oven' 'knife' 'keyboard' 'elephant' 'clock'
  'chair' 'cat' 'car' 'bottle' 'bicycle' 'bear' 'airplane' 'dog']
 ['bird' 'dog' 'truck' 'oven' 'knife' 'keyboard' 'elephant' 'clock'
  'chair' 'cat' 'car' 'bottle' 'bicycle' 'bear' 'airplane' 'boat']
 ['bird' 'cat' 'bottle' 'truck' 'oven' 'knife' 'keyboard' 'elephant'
  'chair' 'boat' 'bicycle' 'bear' 'airplane' 'dog' 'clock' 'car']
 ['bird' 'dog' 'bottle' 'cat' 'boat' 'truck' 'oven' 'knife' 'keyboard'
  'elephant' 'clock' 'chair' 'car' 'bicycle' 'bear' 'airplane']
 ['bird' 'dog' 'bottle' 'truck' 'oven' 'knife' 'keyboard' 'elephant'
  'clock' 'chair' 'cat' 'car' 'boat' 'bicycle' 'bear' 'airplane']
 ['bird' 'dog' 'cat' 'bottle' 'truck' 'oven' 'knife' 'keyboard'
  'elephant' 'chair' 'boat' 'bicycle' 'bear' 'airplane' 'clock' 'car']
 ['bird' 'dog' 'clock' 'car' 'truck' 'oven' 'knife' 'keyboard' 'elephant'
  'chair' 'boat' 'bicycle' 'bear' 'airplane' 'cat' 'bottle']
 ['bird' 'bottle' 'cat' 'boat' 'truck' 'oven' 'knife' 'keyboard'
  'elephant' 'dog' 'clock' 'chair' 'car' 'bicycle' 'bear' 'airplane']
 ['bird' 'truck' 'oven' 'knife' 'keyboard' 'elephant' 'clock' 'chair'
  'cat' 'car' 'bottle' 'bicycle' 'bear' 'airplane' 'boat' 'dog']]",airplane,NaN,airplane8-elephant3.png
xception,1,21,NaN,"[['bird' 'truck' 'oven' 'knife' 'keyboard' 'elephant' 'clock' 'chair'
  'cat' 'car' 'bottle' 'bicycle' 'bear' 'airplane' 'boat' 'dog']
 ['bird' 'clock' 'car' 'truck' 'oven' 'knife' 'keyboard' 'elephant'
  'chair' 'boat' 'bicycle' 'bear' 'airplane' 'cat' 'bottle' 'dog']
 ['dog' 'clock' 'car' 'truck' 'oven' 'knife' 'keyboard' 'elephant'
  'chair' 'boat' 'bicycle' 'bear' 'airplane' 'cat' 'bottle' 'bird']
 ['bottle' 'truck' 'oven' 'knife' 'keyboard' 'elephant' 'dog' 'clock'
  'chair' 'cat' 'car' 'boat' 'bird' 'bicycle' 'bear' 'airplane']
 ['bird' 'boat' 'truck' 'oven' 'knife' 'keyboard' 'elephant' 'dog'
  'clock' 'chair' 'cat' 'car' 'bottle' 'bicycle' 'bear' 'airplane']
 ['dog' 'truck' 'oven' 'knife' 'keyboard' 'elephant' 'clock' 'chair'
  'cat' 'car' 'bottle' 'bicycle' 'bear' 'airplane' 'boat' 'bird']
 ['bird' 'dog' 'bottle' 'truck' 'oven' 'knife' 'keyboard' 'elephant'
  'clock' 'chair' 'cat' 'car' 'boat' 'bicycle' 'bear' 'airplane']
 ['bottle' 'bird' 'truck' 'oven' 'knife' 'keyboard' 'elephant' 'dog'
  'clock' 'chair' 'cat' 'car' 'boat' 'bicycle' 'bear' 'airplane']
 ['bird' 'bottle' 'truck' 'oven' 'knife' 'keyboard' 'elephant' 'clock'
  'chair' 'cat' 'car' 'boat' 'bicycle' 'bear' 'airplane' 'dog']
 ['bird' 'dog' 'truck' 'oven' 'knife' 'keyboard' 'elephant' 'clock'
  'chair' 'cat' 'car' 'bottle' 'bicycle' 'bear' 'airplane' 'boat']
 ['bird' 'truck' 'oven' 'knife' 'keyboard' 'elephant' 'clock' 'chair'
  'cat' 'car' 'bottle' 'boat' 'bicycle' 'bear' 'airplane' 'dog']
 ['bird' 'dog' 'bottle' 'truck' 'oven' 'knife' 'keyboard' 'elephant'
  'clock' 'chair' 'cat' 'car' 'boat' 'bicycle' 'bear' 'airplane']
 ['bottle' 'bird' 'truck' 'oven' 'knife' 'keyboard' 'elephant' 'clock'
  'chair' 'cat' 'car' 'boat' 'bicycle' 'bear' 'airplane' 'dog']
 ['bird' 'dog' 'truck' 'oven' 'knife' 'keyboard' 'elephant' 'clock'
  'chair' 'cat' 'car' 'bottle' 'boat' 'bicycle' 'bear' 'airplane']
 ['bird' 'dog' 'boat' 'truck' 'oven' 'knife' 'keyboard' 'elephant'
  'clock' 'chair' 'cat' 'car' 'bottle' 'bicycle' 'bear' 'airplane']
 ['truck' 'oven' 'knife' 'keyboard' 'elephant' 'dog' 'clock' 'chair'
  'cat' 'car' 'bottle' 'boat' 'bird' 'bicycle' 'bear' 'airplane']
 ['bird' 'truck' 'oven' 'knife' 'keyboard' 'elephant' 'clock' 'chair'
  'cat' 'car' 'bottle' 'boat' 'bicycle' 'bear' 'airplane' 'dog']
 ['truck' 'oven' 'knife' 'keyboard' 'elephant' 'clock' 'chair' 'cat'
  'car' 'bottle' 'bird' 'bicycle' 'bear' 'airplane' 'boat' 'dog']
 ['bird' 'dog' 'bottle' 'cat' 'boat' 'truck' 'oven' 'knife' 'keyboard'
  'elephant' 'clock' 'chair' 'car' 'bicycle' 'bear' 'airplane']
 ['bird' 'truck' 'oven' 'knife' 'keyboard' 'elephant' 'clock' 'chair'
  'cat' 'car' 'bottle' 'boat' 'bicycle' 'bear' 'airplane' 'dog']
 ['bird' 'dog' 'truck' 'oven' 'knife' 'keyboard' 'elephant' 'clock'
  'chair' 'cat' 'car' 'boat' 'bicycle' 'bear' 'airplane' 'bottle']
 ['bird' 'boat' 'truck' 'oven' 'knife' 'keyboard' 'elephant' 'clock'
  'chair' 'cat' 'car' 'bottle' 'bicycle' 'bear' 'airplane' 'dog']
 ['bottle' 'bird' 'truck' 'oven' 'knife' 'keyboard' 'elephant' 'clock'
  'chair' 'cat' 'car' 'boat' 'bicycle' 'bear' 'airplane' 'dog']
 ['bird' 'truck' 'oven' 'knife' 'keyboard' 'elephant' 'dog' 'clock'
  'chair' 'cat' 'car' 'boat' 'bicycle' 'bear' 'airplane' 'bottle']
 ['bird' 'cat' 'bottle' 'truck' 'oven' 'knife' 'keyboard' 'elephant'
  'chair' 'boat' 'bicycle' 'bear' 'airplane' 'dog' 'clock' 'car']
 ['bird' 'dog' 'bottle' 'truck' 'oven' 'knife' 'keyboard' 'elephant'
  'clock' 'chair' 'cat' 'car' 'boat' 'bicycle' 'bear' 'airplane']
 ['truck' 'oven' 'knife' 'keyboard' 'elephant' 'clock' 'chair' 'cat'
  'car' 'bottle' 'boat' 'bicycle' 'bear' 'airplane' 'dog' 'bird']
 ['bird' 'dog' 'boat' 'truck' 'oven' 'knife' 'keyboard' 'elephant'
  'clock' 'chair' 'cat' 'car' 'bottle' 'bicycle' 'bear' 'airplane']
 ['bird' 'dog' 'truck' 'oven' 'knife' 'keyboard' 'elephant' 'clock'
  'chair' 'cat' 'car' 'boat' 'bicycle' 'bear' 'airplane' 'bottle']
 ['bottle' 'bird' 'dog' 'cat' 'boat' 'truck' 'oven' 'knife' 'keyboard'
  'elephant' 'clock' 'chair' 'car' 'bicycle' 'bear' 'airplane']
 ['boat' 'truck' 'oven' 'knife' 'keyboard' 'elephant' 'clock' 'chair'
  'cat' 'car' 'bottle' 'bird' 'bicycle' 'bear' 'airplane' 'dog']
 ['bird' 'truck' 'oven' 'knife' 'keyboard' 'elephant' 'clock' 'chair'
  'cat' 'car' 'boat' 'bicycle' 'bear' 'airplane' 'bottle' 'dog']]",airplane,NaN,airplane8-oven2.png
xception,1,22,NaN,"[['truck' 'oven' 'knife' 'keyboard' 'elephant' 'dog' 'clock' 'chair'
  'cat' 'car' 'bottle' 'boat' 'bird' 'bicycle' 'bear' 'airplane']
 ['truck' 'oven' 'knife' 'keyboard' 'elephant' 'dog' 'clock' 'chair'
  'cat' 'car' 'bottle' 'boat' 'bird' 'bicycle' 'bear' 'airplane']
 ['truck' 'oven' 'knife' 'keyboard' 'elephant' 'dog' 'clock' 'chair'
  'cat' 'car' 'bottle' 'boat' 'bird' 'bicycle' 'bear' 'airplane']
 ['truck' 'oven' 'knife' 'keyboard' 'elephant' 'dog' 'clock' 'chair'
  'cat' 'car' 'bottle' 'boat' 'bird' 'bicycle' 'bear' 'airplane']
 ['truck' 'oven' 'knife' 'keyboard' 'elephant' 'dog' 'clock' 'chair'
  'cat' 'car' 'bottle' 'boat' 'bird' 'bicycle' 'bear' 'airplane']
 ['truck' 'oven' 'knife' 'keyboard' 'elephant' 'dog' 'clock' 'chair'
  'cat' 'car' 'bottle' 'boat' 'bird' 'bicycle' 'bear' 'airplane']
 ['truck' 'oven' 'knife' 'keyboard' 'elephant' 'dog' 'clock' 'chair'
  'cat' 'car' 'bottle' 'boat' 'bird' 'bicycle' 'bear' 'airplane']
 ['truck' 'oven' 'knife' 'keyboard' 'elephant' 'dog' 'clock' 'chair'
  'cat' 'car' 'bottle' 'boat' 'bird' 'bicycle' 'bear' 'airplane']
 ['truck' 'oven' 'knife' 'keyboard' 'elephant' 'dog' 'clock' 'chair'
  'cat' 'car' 'bottle' 'boat' 'bird' 'bicycle' 'bear' 'airplane']
 ['truck' 'oven' 'knife' 'keyboard' 'elephant' 'dog' 'clock' 'chair'
  'cat' 'car' 'bottle' 'boat' 'bird' 'bicycle' 'bear' 'airplane']
 ['truck' 'oven' 'knife' 'keyboard' 'elephant' 'dog' 'clock' 'chair'
  'cat' 'car' 'bottle' 'boat' 'bird' 'bicycle' 'bear' 'airplane']
 ['truck' 'oven' 'knife' 'keyboard' 'elephant' 'dog' 'clock' 'chair'
  'cat' 'car' 'bottle' 'boat' 'bird' 'bicycle' 'bear' 'airplane']
 ['truck' 'oven' 'knife' 'keyboard' 'elephant' 'dog' 'clock' 'chair'
  'cat' 'car' 'bottle' 'boat' 'bird' 'bicycle' 'bear' 'airplane']
 ['truck' 'oven' 'knife' 'keyboard' 'elephant' 'dog' 'clock' 'chair'
  'cat' 'car' 'bottle' 'boat' 'bird' 'bicycle' 'bear' 'airplane']
 ['truck' 'oven' 'knife' 'keyboard' 'elephant' 'dog' 'clock' 'chair'
  'cat' 'car' 'bottle' 'boat' 'bird' 'bicycle' 'bear' 'airplane']
 ['truck' 'oven' 'knife' 'keyboard' 'elephant' 'dog' 'clock' 'chair'
  'cat' 'car' 'bottle' 'boat' 'bird' 'bicycle' 'bear' 'airplane']
 ['truck' 'oven' 'knife' 'keyboard' 'elephant' 'dog' 'clock' 'chair'
  'cat' 'car' 'bottle' 'boat' 'bird' 'bicycle' 'bear' 'airplane']
 ['truck' 'oven' 'knife' 'keyboard' 'elephant' 'dog' 'clock' 'chair'
  'cat' 'car' 'bottle' 'boat' 'bird' 'bicycle' 'bear' 'airplane']
 ['truck' 'oven' 'knife' 'keyboard' 'elephant' 'dog' 'clock' 'chair'
  'cat' 'car' 'bottle' 'boat' 'bird' 'bicycle' 'bear' 'airplane']
 ['truck' 'oven' 'knife' 'keyboard' 'elephant' 'dog' 'clock' 'chair'
  'cat' 'car' 'bottle' 'boat' 'bird' 'bicycle' 'bear' 'airplane']
 ['dog' 'truck' 'oven' 'knife' 'keyboard' 'elephant' 'clock' 'chair'
  'cat' 'car' 'boat' 'bicycle' 'bear' 'airplane' 'bottle' 'bird']
 ['truck' 'oven' 'knife' 'keyboard' 'elephant' 'dog' 'clock' 'chair'
  'cat' 'car' 'bottle' 'boat' 'bird' 'bicycle' 'bear' 'airplane']
 ['truck' 'oven' 'knife' 'keyboard' 'elephant' 'dog' 'clock' 'chair'
  'cat' 'car' 'bottle' 'boat' 'bird' 'bicycle' 'bear' 'airplane']
 ['truck' 'oven' 'knife' 'keyboard' 'elephant' 'dog' 'clock' 'chair'
  'cat' 'car' 'bottle' 'boat' 'bird' 'bicycle' 'bear' 'airplane']
 ['truck' 'oven' 'knife' 'keyboard' 'elephant' 'dog' 'clock' 'chair'
  'cat' 'car' 'bottle' 'boat' 'bird' 'bicycle' 'bear' 'airplane']
 ['truck' 'oven' 'knife' 'keyboard' 'elephant' 'dog' 'clock' 'chair'
  'cat' 'car' 'bottle' 'boat' 'bird' 'bicycle' 'bear' 'airplane']
 ['truck' 'oven' 'knife' 'keyboard' 'elephant' 'dog' 'clock' 'chair'
  'cat' 'car' 'bottle' 'boat' 'bird' 'bicycle' 'bear' 'airplane']
 ['truck' 'oven' 'knife' 'keyboard' 'elephant' 'dog' 'clock' 'chair'
  'cat' 'car' 'bottle' 'boat' 'bird' 'bicycle' 'bear' 'airplane']
 ['truck' 'oven' 'knife' 'keyboard' 'elephant' 'dog' 'clock' 'chair'
  'cat' 'car' 'bottle' 'boat' 'bird' 'bicycle' 'bear' 'airplane']
 ['truck' 'oven' 'knife' 'keyboard' 'elephant' 'dog' 'clock' 'chair'
  'cat' 'car' 'bottle' 'boat' 'bird' 'bicycle' 'bear' 'airplane']
 ['truck' 'oven' 'knife' 'keyboard' 'elephant' 'dog' 'clock' 'chair'
  'cat' 'car' 'bottle' 'boat' 'bird' 'bicycle' 'bear' 'airplane']
 ['truck' 'oven' 'knife' 'keyboard' 'elephant' 'dog' 'clock' 'chair'
  'cat' 'car' 'bottle' 'boat' 'bird' 'bicycle' 'bear' 'airplane']]",bear,NaN,bear10-oven1.png
xception,1,23,NaN,"[['bird' 'truck' 'oven' 'knife' 'keyboard' 'elephant' 'dog' 'clock'
  'chair' 'cat' 'car' 'boat' 'bicycle' 'bear' 'airplane' 'bottle']
 ['bottle' 'bird' 'truck' 'oven' 'knife' 'keyboard' 'elephant' 'dog'
  'clock' 'chair' 'cat' 'car' 'boat' 'bicycle' 'bear' 'airplane']
 ['truck' 'oven' 'knife' 'keyboard' 'elephant' 'clock' 'chair' 'cat'
  'car' 'bottle' 'bird' 'bicycle' 'bear' 'airplane' 'boat' 'dog']
 ['bird' 'dog' 'truck' 'oven' 'knife' 'keyboard' 'elephant' 'clock'
  'chair' 'cat' 'car' 'bottle' 'boat' 'bicycle' 'bear' 'airplane']
 ['bird' 'truck' 'oven' 'knife' 'keyboard' 'elephant' 'dog' 'clock'
  'chair' 'cat' 'car' 'bottle' 'bicycle' 'bear' 'airplane' 'boat']
 ['truck' 'oven' 'knife' 'keyboard' 'elephant' 'clock' 'chair' 'cat'
  'car' 'bottle' 'boat' 'bird' 'bicycle' 'bear' 'airplane' 'dog']
 ['bird' 'dog' 'bottle' 'truck' 'oven' 'knife' 'keyboard' 'elephant'
  'clock' 'chair' 'cat' 'car' 'boat' 'bicycle' 'bear' 'airplane']
 ['cat' 'bottle' 'truck' 'oven' 'knife' 'keyboard' 'elephant' 'chair'
  'boat' 'bird' 'bicycle' 'bear' 'airplane' 'dog' 'clock' 'car']
 ['bird' 'truck' 'oven' 'knife' 'keyboard' 'elephant' 'dog' 'clock'
  'chair' 'cat' 'car' 'boat' 'bicycle' 'bear' 'airplane' 'bottle']
 ['bird' 'bottle' 'truck' 'oven' 'knife' 'keyboard' 'elephant' 'clock'
  'chair' 'cat' 'car' 'boat' 'bicycle' 'bear' 'airplane' 'dog']
 ['bird' 'cat' 'bottle' 'truck' 'oven' 'knife' 'keyboard' 'elephant'
  'dog' 'chair' 'boat' 'bicycle' 'bear' 'airplane' 'clock' 'car']
 ['bird' 'dog' 'bottle' 'truck' 'oven' 'knife' 'keyboard' 'elephant'
  'clock' 'chair' 'cat' 'car' 'boat' 'bicycle' 'bear' 'airplane']
 ['bird' 'dog' 'cat' 'bottle' 'truck' 'oven' 'knife' 'keyboard'
  'elephant' 'chair' 'boat' 'bicycle' 'bear' 'airplane' 'clock' 'car']
 ['bird' 'dog' 'truck' 'oven' 'knife' 'keyboard' 'elephant' 'clock'
  'chair' 'cat' 'car' 'bottle' 'boat' 'bicycle' 'bear' 'airplane']
 ['bird' 'bottle' 'truck' 'oven' 'knife' 'keyboard' 'elephant' 'clock'
  'chair' 'cat' 'car' 'boat' 'bicycle' 'bear' 'airplane' 'dog']
 ['bird' 'truck' 'oven' 'knife' 'keyboard' 'elephant' 'clock' 'chair'
  'cat' 'car' 'bottle' 'boat' 'bicycle' 'bear' 'airplane' 'dog']
 ['bird' 'clock' 'car' 'truck' 'oven' 'knife' 'keyboard' 'elephant'
  'chair' 'boat' 'bicycle' 'bear' 'airplane' 'dog' 'cat' 'bottle']
 ['bird' 'dog' 'truck' 'oven' 'knife' 'keyboard' 'elephant' 'clock'
  'chair' 'cat' 'car' 'bottle' 'boat' 'bicycle' 'bear' 'airplane']
 ['bird' 'truck' 'oven' 'knife' 'keyboard' 'elephant' 'clock' 'chair'
  'cat' 'car' 'boat' 'bicycle' 'bear' 'airplane' 'dog' 'bottle']
 ['bird' 'dog' 'truck' 'oven' 'knife' 'keyboard' 'elephant' 'clock'
  'chair' 'cat' 'car' 'boat' 'bicycle' 'bear' 'airplane' 'bottle']
 ['bird' 'truck' 'oven' 'knife' 'keyboard' 'elephant' 'clock' 'chair'
  'cat' 'car' 'bottle' 'boat' 'bicycle' 'bear' 'airplane' 'dog']
 ['bird' 'truck' 'oven' 'knife' 'keyboard' 'elephant' 'clock' 'chair'
  'cat' 'car' 'boat' 'bicycle' 'bear' 'airplane' 'bottle' 'dog']
 ['bird' 'dog' 'clock' 'car' 'truck' 'oven' 'knife' 'keyboard' 'elephant'
  'chair' 'boat' 'bicycle' 'bear' 'airplane' 'cat' 'bottle']
 ['bird' 'truck' 'oven' 'knife' 'keyboard' 'elephant' 'clock' 'chair'
  'cat' 'car' 'bottle' 'boat' 'bicycle' 'bear' 'airplane' 'dog']
 ['dog' 'clock' 'car' 'truck' 'oven' 'knife' 'keyboard' 'elephant'
  'chair' 'boat' 'bicycle' 'bear' 'airplane' 'cat' 'bottle' 'bird']
 ['clock' 'car' 'truck' 'oven' 'knife' 'keyboard' 'elephant' 'chair'
  'boat' 'bicycle' 'bear' 'airplane' 'cat' 'bottle' 'bird' 'dog']
 ['bird' 'cat' 'bottle' 'truck' 'oven' 'knife' 'keyboard' 'elephant'
  'dog' 'chair' 'boat' 'bicycle' 'bear' 'airplane' 'clock' 'car']
